time,ax,ay,az,atotal
0.0,0.01,0.0,-0.06,0.06
0.01,0.08,-0.03,-0.35,0.36
0.02,-0.03,0.01,0.11,0.12
0.03,-0.06,0.03,0.22,0.22
0.04,0.04,-0.01,-0.11,0.12
0.05,0.03,-0.01,-0.13,0.13
0.06,-0.03,0.01,0.12,0.12
0.07,-0.02,0.0,0.05,0.06
0.081,0.02,-0.01,-0.09,0.09
0.091,-0.0,0.0,-0.01,0.01
0.101,-0.02,0.01,0.06,0.06
0.111,0.0,0.0,-0.01,0.01
0.121,0.0,-0.0,-0.04,0.04
0.131,-0.01,0.01,0.02,0.03
0.141,0.01,0.0,0.02,0.02
0.151,0.0,-0.0,-0.02,0.02
0.161,-0.0,0.0,0.0,0.0
0.171,-0.01,0.0,0.02,0.02
0.181,0.0,-0.0,0.0,0.01
0.191,-0.0,-0.0,-0.0,0.01
0.201,-0.01,-0.0,0.01,0.01
0.212,-0.0,0.0,0.01,0.01
0.221,-0.0,0.0,-0.01,0.01
0.232,-0.0,-0.0,-0.0,0.0
0.242,-0.0,-0.0,0.0,0.01
0.252,-0.01,-0.0,-0.0,0.01
0.262,-0.0,0.01,-0.0,0.01
0.272,-0.01,0.0,-0.0,0.01
0.282,-0.0,-0.0,0.0,0.0
0.292,0.0,0.01,0.0,0.01
0.302,0.01,0.0,0.0,0.01
0.312,-0.01,0.01,0.01,0.01
0.322,-0.0,0.0,0.01,0.01
0.332,-0.0,0.0,0.0,0.0
0.343,-0.01,0.0,0.0,0.01
0.352,-0.0,0.01,0.01,0.01
0.363,-0.0,0.0,-0.0,0.01
0.377,0.0,0.01,0.01,0.01
0.387,0.0,0.0,0.0,0.0
0.397,-0.01,0.0,0.01,0.02
0.407,-0.01,0.01,0.0,0.01
0.417,-0.01,0.0,0.01,0.01
0.427,0.0,0.0,-0.01,0.01
0.437,-0.01,-0.0,0.0,0.01
0.447,0.0,-0.0,0.0,0.0
0.457,0.01,-0.0,-0.0,0.01
0.467,-0.01,0.0,-0.0,0.01
0.477,-0.01,0.01,-0.01,0.01
0.487,-0.0,0.0,0.0,0.01
0.497,-0.01,0.0,0.01,0.01
0.508,0.0,0.01,0.01,0.01
0.518,-0.01,0.01,-0.0,0.01
0.528,-0.01,-0.0,0.0,0.01
0.538,-0.0,-0.0,0.0,0.0
0.548,-0.0,0.0,0.01,0.01
0.558,-0.01,-0.0,0.0,0.01
0.568,-0.01,0.01,0.0,0.01
0.578,-0.01,0.0,0.01,0.01
0.588,-0.0,-0.0,0.01,0.01
0.598,-0.01,0.0,0.0,0.01
0.608,-0.0,-0.0,0.0,0.0
0.618,0.0,0.0,0.02,0.02
0.628,0.0,0.0,0.01,0.01
0.638,0.0,0.01,0.01,0.01
0.648,-0.0,-0.0,0.01,0.01
0.658,-0.0,0.0,0.01,0.01
0.669,-0.0,0.0,0.01,0.01
0.679,-0.01,0.0,0.0,0.02
0.689,-0.0,0.0,-0.0,0.0
0.699,0.0,-0.0,0.0,0.0
0.709,-0.01,0.0,0.01,0.01
0.719,-0.01,0.0,0.01,0.02
0.729,-0.0,-0.0,0.01,0.01
0.739,-0.01,-0.0,0.01,0.01
0.749,-0.02,0.0,-0.0,0.02
0.759,0.0,0.0,0.01,0.01
0.769,0.01,0.01,0.01,0.02
0.779,0.0,-0.0,0.02,0.02
0.789,-0.0,0.0,0.01,0.01
0.8,0.0,0.01,-0.0,0.01
0.81,0.0,-0.0,0.02,0.02
0.82,-0.01,-0.0,0.01,0.01
0.83,0.0,-0.0,0.01,0.01
0.84,-0.01,-0.0,0.01,0.01
0.85,-0.01,0.01,0.0,0.01
0.86,-0.01,0.0,0.0,0.01
0.87,-0.0,-0.0,0.0,0.0
0.88,-0.01,-0.0,-0.01,0.01
0.89,-0.0,0.0,0.0,0.01
0.9,-0.01,-0.01,0.0,0.01
0.91,-0.01,-0.0,0.0,0.01
0.921,-0.0,0.01,-0.0,0.01
0.931,-0.01,0.0,0.01,0.01
0.941,-0.01,-0.01,0.01,0.02
0.951,-0.0,-0.0,0.0,0.0
0.961,-0.0,0.0,0.0,0.01
0.971,0.0,0.0,0.01,0.01
0.981,-0.0,-0.0,0.01,0.01
0.991,-0.0,0.0,0.01,0.01
1.001,-0.01,0.0,0.0,0.01
1.011,-0.0,0.0,0.01,0.01
1.021,-0.0,-0.0,0.0,0.0
1.031,0.0,0.0,0.0,0.0
1.041,-0.01,-0.0,0.01,0.01
1.051,0.0,-0.0,0.0,0.0
1.061,-0.0,0.0,0.0,0.01
1.072,-0.0,0.0,0.01,0.01
1.082,-0.0,-0.0,0.0,0.01
1.092,-0.0,0.0,0.01,0.01
1.102,-0.01,0.0,0.0,0.01
1.112,-0.01,-0.0,-0.0,0.01
1.122,-0.0,-0.0,0.0,0.0
1.132,0.0,0.0,0.0,0.0
1.142,-0.0,0.0,0.01,0.01
1.152,-0.0,0.0,0.01,0.01
1.162,-0.0,0.01,0.0,0.01
1.172,0.01,0.0,-0.0,0.01
1.182,0.0,0.0,0.01,0.01
1.192,0.0,-0.0,0.01,0.01
1.203,-0.01,-0.0,0.01,0.01
1.213,-0.0,-0.0,0.01,0.01
1.223,-0.01,-0.01,0.01,0.01
1.233,-0.0,-0.0,0.01,0.01
1.243,-0.01,-0.0,0.01,0.01
1.253,-0.01,-0.0,-0.0,0.01
1.263,-0.0,0.0,0.01,0.01
1.273,-0.01,0.01,0.0,0.02
1.283,-0.0,-0.0,0.0,0.0
1.293,-0.01,-0.0,-0.0,0.01
1.303,-0.0,0.0,0.01,0.01
1.313,0.0,-0.0,0.0,0.0
1.323,-0.01,0.0,0.0,0.01
1.333,-0.01,-0.01,-0.0,0.01
1.344,-0.01,0.0,0.0,0.01
1.354,-0.01,0.0,0.01,0.01
1.364,0.0,0.0,0.0,0.01
1.374,-0.01,-0.0,0.01,0.01
1.384,-0.01,-0.0,0.0,0.01
1.394,-0.0,-0.0,0.01,0.01
1.404,-0.0,0.0,0.0,0.0
1.414,-0.0,0.0,-0.0,0.01
1.424,-0.01,-0.0,0.0,0.01
1.434,-0.0,0.0,0.01,0.01
1.444,-0.0,-0.0,0.0,0.0
1.454,-0.01,0.0,0.0,0.01
1.464,0.0,-0.0,0.0,0.0
1.474,-0.0,0.0,0.01,0.01
1.485,-0.0,-0.0,0.01,0.01
1.495,-0.0,0.0,0.01,0.01
1.505,-0.01,0.0,0.0,0.01
1.515,-0.01,0.01,0.0,0.01
1.525,-0.01,-0.0,0.0,0.01
1.535,0.0,-0.0,0.0,0.0
1.545,-0.0,-0.0,0.0,0.0
1.555,0.0,-0.01,0.01,0.01
1.565,-0.0,-0.0,0.01,0.01
1.575,0.0,-0.0,0.01,0.01
1.585,0.0,-0.0,0.01,0.01
1.595,0.0,0.01,0.02,0.02
1.606,-0.0,0.0,0.01,0.01
1.616,-0.01,0.0,0.01,0.02
1.626,-0.02,-0.01,-0.01,0.02
1.636,-0.0,0.0,0.0,0.0
1.646,-0.0,0.0,0.0,0.0
1.656,0.0,-0.01,0.01,0.01
1.666,-0.01,0.0,0.01,0.01
1.676,-0.01,0.01,-0.0,0.01
1.686,-0.0,0.0,0.01,0.01
1.696,0.0,0.01,-0.0,0.01
1.706,0.01,0.01,-0.01,0.01
1.716,0.0,-0.0,0.01,0.01
1.726,-0.0,0.0,0.02,0.02
1.737,-0.0,-0.0,-0.0,0.0
1.747,-0.0,-0.0,0.01,0.01
1.757,-0.0,-0.01,0.02,0.02
1.767,0.0,0.0,0.01,0.01
1.777,-0.01,0.01,0.0,0.01
1.787,0.01,-0.01,0.01,0.01
1.797,0.0,-0.0,0.01,0.01
1.807,-0.0,0.0,0.0,0.0
1.817,-0.01,0.0,0.0,0.01
1.827,-0.0,-0.01,0.01,0.01
1.837,-0.01,-0.0,-0.0,0.01
1.847,0.0,0.0,0.01,0.01
1.857,-0.0,0.01,-0.0,0.01
1.867,-0.01,-0.0,0.01,0.01
1.877,-0.01,-0.0,0.01,0.01
1.888,-0.01,0.0,0.0,0.01
1.898,-0.0,-0.01,0.0,0.01
1.908,-0.0,-0.01,0.01,0.02
1.918,-0.0,0.0,-0.0,0.0
1.928,-0.01,-0.0,-0.01,0.01
1.938,-0.01,-0.01,0.0,0.01
1.948,-0.0,-0.0,0.0,0.0
1.958,-0.01,-0.01,0.0,0.01
1.968,-0.0,-0.0,0.01,0.01
1.978,0.0,-0.0,0.01,0.01
1.988,-0.01,0.0,0.01,0.02
1.998,-0.01,0.01,0.0,0.01
2.008,-0.0,0.0,-0.01,0.01
2.019,0.0,0.0,0.01,0.01
2.029,-0.0,-0.01,0.01,0.01
2.039,-0.0,-0.0,-0.01,0.01
2.049,0.0,-0.0,0.0,0.01
2.059,-0.01,-0.0,0.0,0.01
2.069,-0.01,-0.0,-0.0,0.01
2.079,-0.0,-0.0,0.01,0.01
2.089,0.0,-0.0,-0.01,0.01
2.099,-0.0,0.0,0.0,0.0
2.109,-0.01,-0.01,-0.0,0.01
2.119,-0.0,0.0,0.0,0.0
2.129,-0.0,-0.0,0.02,0.02
2.139,-0.0,0.0,0.01,0.01
2.149,-0.0,-0.0,0.01,0.01
2.16,0.0,-0.0,0.01,0.01
2.17,0.0,0.0,0.0,0.01
2.18,0.0,-0.0,0.01,0.01
2.19,-0.0,-0.0,0.01,0.02
2.2,-0.01,0.01,-0.0,0.01
2.21,-0.0,0.0,0.01,0.01
2.22,-0.01,-0.01,0.01,0.01
2.23,-0.01,0.01,0.01,0.02
2.24,-0.01,-0.0,0.01,0.01
2.25,0.0,-0.01,0.0,0.01
2.26,-0.0,0.0,0.01,0.01
2.27,-0.0,0.0,0.01,0.01
2.28,-0.0,0.01,0.01,0.01
2.29,-0.0,0.0,0.01,0.01
2.3,-0.0,0.0,0.01,0.01
2.311,0.0,-0.0,0.0,0.0
2.321,-0.0,-0.0,0.0,0.0
2.331,0.0,-0.0,0.0,0.0
2.341,-0.0,0.0,0.0,0.0
2.351,0.01,-0.0,0.01,0.01
2.361,-0.0,0.0,-0.01,0.01
2.371,-0.01,0.0,0.01,0.01
2.381,0.0,-0.0,0.01,0.01
2.391,-0.0,0.0,0.01,0.01
2.401,-0.0,-0.0,-0.0,0.01
2.411,-0.0,-0.0,0.01,0.01
2.421,-0.0,-0.0,0.0,0.0
2.432,-0.0,-0.0,0.0,0.01
2.442,0.0,0.0,0.0,0.0
2.452,-0.01,0.0,-0.0,0.01
2.462,0.0,0.0,0.01,0.01
2.472,-0.0,-0.0,0.01,0.01
2.482,0.0,-0.0,0.01,0.01
2.492,-0.0,0.0,0.0,0.01
2.502,0.0,-0.01,0.0,0.01
2.512,-0.01,0.0,-0.0,0.01
2.522,0.01,0.0,-0.01,0.01
2.532,-0.01,-0.0,0.0,0.01
2.542,-0.01,-0.0,0.01,0.01
2.552,-0.01,-0.0,0.01,0.01
2.562,-0.0,-0.0,0.01,0.01
2.573,-0.0,0.0,0.01,0.01
2.583,0.0,0.01,0.0,0.01
2.593,-0.0,-0.0,0.01,0.01
2.603,-0.01,-0.01,0.01,0.01
2.613,0.0,-0.0,0.01,0.01
2.623,-0.0,0.0,0.0,0.0
2.633,-0.01,-0.0,0.0,0.01
2.643,-0.01,0.0,0.01,0.01
2.653,-0.01,-0.0,0.0,0.01
2.663,-0.0,-0.0,-0.0,0.01
2.673,-0.0,-0.0,0.01,0.01
2.683,-0.0,-0.0,0.0,0.01
2.694,-0.0,-0.0,0.01,0.01
2.703,-0.01,0.0,0.01,0.01
2.714,0.0,-0.01,0.0,0.01
2.724,-0.0,-0.0,0.01,0.01
2.734,0.0,-0.0,0.01,0.01
2.744,-0.01,0.0,-0.0,0.01
2.754,-0.0,-0.01,0.0,0.01
2.764,0.0,-0.0,0.0,0.01
2.774,-0.0,0.0,0.02,0.02
2.784,-0.0,-0.0,0.01,0.01
2.794,0.0,-0.0,0.01,0.01
2.804,-0.0,0.0,0.01,0.01
2.814,0.0,0.0,0.0,0.0
2.824,-0.0,0.0,0.0,0.0
2.834,-0.0,-0.0,-0.0,0.0
2.844,0.01,-0.01,0.0,0.01
2.855,-0.01,0.0,0.01,0.01
2.865,-0.0,0.0,0.0,0.0
2.875,-0.01,-0.0,0.01,0.01
2.885,-0.0,-0.0,-0.01,0.01
2.895,-0.01,-0.0,0.01,0.01
2.905,-0.0,0.0,0.01,0.01
2.915,-0.0,0.0,0.02,0.02
2.925,-0.01,-0.0,-0.0,0.01
2.935,0.0,0.0,0.01,0.01
2.945,0.0,-0.0,-0.0,0.01
2.955,-0.0,0.0,0.01,0.01
2.965,-0.01,0.0,0.01,0.01
2.975,-0.01,-0.01,0.01,0.01
2.986,-0.01,-0.01,0.01,0.01
2.996,-0.01,-0.0,-0.0,0.01
3.006,-0.0,-0.0,0.01,0.01
3.016,-0.0,0.0,0.01,0.01
3.026,-0.0,-0.0,-0.0,0.0
3.036,-0.0,-0.0,0.01,0.01
3.046,-0.0,0.01,0.0,0.01
3.056,-0.0,0.0,0.0,0.0
3.066,0.0,-0.0,-0.0,0.0
3.076,-0.0,-0.0,0.0,0.01
3.086,-0.0,-0.0,0.0,0.01
3.096,0.0,0.01,0.01,0.01
3.106,0.0,0.0,0.0,0.01
3.116,-0.0,0.01,0.01,0.01
3.127,-0.01,-0.0,0.01,0.01
3.137,-0.0,-0.01,0.0,0.01
3.147,0.0,-0.0,0.02,0.02
3.157,0.01,0.0,0.02,0.02
3.167,0.0,-0.0,0.0,0.0
3.177,0.0,0.01,0.0,0.01
3.187,-0.0,-0.01,0.01,0.02
3.197,-0.01,0.01,0.01,0.01
3.207,0.0,-0.0,0.0,0.01
3.217,0.0,-0.0,0.01,0.01
3.227,-0.0,-0.0,0.01,0.01
3.237,-0.01,-0.0,0.02,0.02
3.248,-0.0,0.0,0.01,0.01
3.257,0.0,-0.0,0.01,0.01
3.268,-0.0,0.0,0.0,0.0
3.278,0.0,-0.0,0.01,0.01
3.288,0.0,-0.0,0.0,0.0
3.298,0.0,0.0,0.0,0.0
3.308,0.0,-0.0,0.0,0.01
3.318,-0.0,-0.0,0.0,0.01
3.328,-0.0,0.0,0.0,0.0
3.338,0.0,-0.01,0.02,0.02
3.348,-0.01,-0.01,0.0,0.01
3.358,0.0,-0.01,-0.0,0.01
3.368,0.0,0.0,-0.0,0.0
3.378,-0.0,0.0,0.01,0.01
3.388,-0.0,-0.0,-0.0,0.0
3.399,0.0,-0.0,0.0,0.01
3.408,0.01,-0.0,0.0,0.01
3.419,0.01,0.0,0.0,0.01
3.429,0.0,0.0,0.0,0.0
3.439,-0.0,-0.01,0.01,0.01
3.449,-0.0,-0.0,0.01,0.01
3.459,-0.0,0.0,0.01,0.01
3.469,0.0,-0.01,0.0,0.01
3.479,-0.0,-0.01,0.01,0.01
3.489,-0.01,-0.01,0.02,0.02
3.499,0.0,-0.0,0.01,0.01
3.509,0.01,-0.0,0.0,0.01
3.519,-0.0,0.01,-0.0,0.01
3.529,0.0,0.01,0.0,0.01
3.54,-0.0,-0.01,0.0,0.01
3.55,0.0,-0.0,0.0,0.01
3.56,-0.0,-0.0,0.01,0.01
3.57,0.01,0.0,0.01,0.01
3.58,0.0,-0.0,-0.0,0.01
3.59,0.0,-0.0,0.0,0.01
3.6,0.0,-0.01,0.0,0.01
3.61,0.01,0.0,0.01,0.01
3.62,-0.01,-0.0,-0.0,0.01
3.63,0.0,0.0,0.01,0.01
3.64,-0.01,0.0,0.01,0.01
3.65,0.0,-0.01,0.01,0.01
3.66,0.0,-0.0,0.01,0.01
3.67,-0.0,-0.0,0.01,0.01
3.681,0.0,-0.0,0.0,0.0
3.691,0.01,-0.0,0.01,0.01
3.701,-0.0,0.01,0.0,0.01
3.711,-0.0,-0.0,0.01,0.01
3.721,-0.0,-0.0,0.0,0.0
3.731,-0.0,0.0,0.0,0.01
3.741,-0.0,-0.0,0.01,0.01
3.751,-0.0,-0.0,-0.0,0.0
3.761,-0.0,-0.0,0.01,0.01
3.771,-0.01,-0.0,0.0,0.01
3.781,-0.0,0.0,0.01,0.01
3.792,0.0,-0.0,0.01,0.01
3.801,-0.0,0.0,-0.0,0.0
3.812,0.01,0.0,0.0,0.01
3.822,-0.0,0.0,0.0,0.01
3.832,-0.0,-0.0,0.0,0.01
3.842,-0.01,-0.0,0.0,0.01
3.852,-0.0,-0.0,-0.0,0.01
3.862,-0.0,0.0,-0.01,0.01
3.872,-0.0,0.0,0.01,0.01
3.882,0.0,0.0,0.0,0.0
3.892,-0.0,0.0,-0.0,0.0
3.902,-0.0,-0.01,0.01,0.01
3.912,-0.0,-0.0,0.01,0.01
3.922,0.0,0.0,0.01,0.01
3.933,0.01,0.0,0.01,0.01
3.943,-0.0,-0.0,0.0,0.0
3.953,-0.0,-0.01,0.0,0.01
3.963,-0.01,0.0,0.01,0.02
3.973,0.0,-0.01,0.0,0.01
3.983,-0.0,0.0,0.02,0.02
3.993,-0.0,0.0,0.01,0.01
4.003,-0.0,-0.0,0.0,0.01
4.013,0.0,-0.0,0.01,0.01
4.023,-0.0,-0.0,0.01,0.01
4.033,0.0,-0.01,0.0,0.01
4.043,-0.0,0.0,0.0,0.01
4.053,-0.0,0.0,0.01,0.01
4.063,-0.0,0.0,0.0,0.0
4.073,0.01,0.0,0.01,0.02
4.083,-0.0,-0.01,0.01,0.01
4.094,-0.0,-0.0,0.0,0.01
4.104,0.0,-0.0,0.0,0.0
4.114,0.01,-0.0,-0.0,0.01
4.124,0.01,-0.01,0.01,0.02
4.134,0.01,0.0,0.01,0.01
4.144,0.0,0.0,0.02,0.02
4.154,0.0,-0.0,0.0,0.0
4.164,-0.0,0.0,0.0,0.01
4.174,0.0,-0.0,0.01,0.01
4.184,-0.0,-0.01,0.01,0.01
4.194,0.0,-0.0,0.02,0.02
4.205,-0.0,-0.0,-0.0,0.01
4.214,0.0,0.0,0.01,0.01
4.224,-0.01,-0.01,0.01,0.02
4.235,0.01,0.0,0.0,0.01
4.245,-0.0,-0.0,0.0,0.0
4.255,0.0,-0.01,0.01,0.01
4.265,-0.01,-0.01,0.0,0.01
4.275,0.0,0.0,0.02,0.02
4.285,-0.0,0.0,0.01,0.01
4.295,-0.01,0.0,-0.0,0.01
4.305,-0.0,-0.0,0.0,0.01
4.315,0.0,-0.01,0.0,0.01
4.325,0.0,-0.01,-0.0,0.01
4.335,-0.0,-0.01,0.01,0.01
4.345,0.0,0.0,0.01,0.01
4.356,-0.01,-0.0,0.01,0.01
4.366,0.01,-0.0,0.01,0.01
4.376,-0.0,-0.0,0.01,0.01
4.386,-0.01,-0.0,0.0,0.01
4.396,0.0,0.0,0.0,0.01
4.406,0.0,-0.0,0.0,0.0
4.416,-0.0,0.0,0.0,0.0
4.426,-0.0,-0.01,0.01,0.02
4.436,-0.01,-0.0,0.0,0.01
4.446,-0.01,0.01,-0.0,0.01
4.456,-0.0,-0.01,0.01,0.01
4.466,0.01,-0.0,0.0,0.01
4.476,-0.0,0.01,0.01,0.01
4.487,-0.0,0.0,0.0,0.01
4.497,-0.0,-0.0,0.01,0.01
4.507,-0.0,-0.01,0.01,0.01
4.517,-0.0,-0.0,0.02,0.02
4.527,-0.0,0.0,0.01,0.01
4.537,0.0,-0.01,0.01,0.01
4.547,0.0,-0.01,0.01,0.02
4.557,-0.0,-0.0,0.02,0.02
4.567,-0.0,-0.01,-0.0,0.01
4.577,-0.01,-0.01,0.0,0.01
4.587,-0.0,-0.01,-0.01,0.01
4.597,-0.0,-0.01,0.01,0.01
4.607,-0.0,-0.0,0.01,0.01
4.618,-0.0,-0.0,0.01,0.01
4.627,-0.0,-0.01,0.01,0.01
4.638,0.01,-0.01,0.01,0.01
4.648,0.0,0.0,0.01,0.01
4.658,-0.0,-0.0,0.01,0.01
4.668,0.0,0.0,0.0,0.01
4.678,-0.01,-0.01,0.0,0.01
4.688,0.0,-0.01,-0.01,0.01
4.698,0.0,-0.01,0.0,0.01
4.708,0.0,-0.0,0.0,0.01
4.718,0.01,-0.0,0.01,0.01
4.728,0.0,-0.0,0.01,0.01
4.738,0.01,-0.01,0.0,0.01
4.748,-0.01,0.0,0.0,0.01
4.758,-0.0,-0.0,0.0,0.01
4.769,-0.0,-0.0,0.0,0.0
4.779,0.0,0.0,0.01,0.01
4.789,0.0,0.0,0.01,0.01
4.799,0.0,-0.0,0.0,0.01
4.809,-0.0,-0.01,0.01,0.01
4.819,-0.0,-0.0,0.01,0.01
4.829,0.0,0.0,0.0,0.0
4.839,0.0,-0.0,-0.0,0.0
4.849,-0.0,0.0,0.0,0.01
4.859,-0.0,-0.01,0.01,0.01
4.869,-0.0,-0.0,0.0,0.0
4.879,0.0,-0.01,-0.0,0.01
4.889,0.0,-0.0,0.01,0.01
4.899,0.0,-0.01,0.01,0.01
4.91,0.0,-0.0,0.0,0.0
4.92,0.0,0.0,0.01,0.01
4.93,0.01,-0.0,0.0,0.01
4.94,0.0,-0.0,0.01,0.01
4.95,-0.0,-0.01,0.0,0.01
4.96,-0.0,-0.0,0.01,0.01
4.97,-0.0,-0.0,0.0,0.0
4.98,0.0,-0.01,0.01,0.02
4.99,0.0,-0.01,0.01,0.01
5.0,-0.0,-0.01,0.01,0.01
5.01,0.0,-0.01,0.01,0.01
5.02,0.0,-0.01,0.01,0.01
5.03,0.01,-0.0,0.0,0.01
5.041,0.0,-0.0,0.01,0.01
5.051,0.0,0.0,0.01,0.01
5.061,-0.0,-0.01,0.0,0.01
5.071,-0.0,-0.01,-0.0,0.01
5.081,-0.0,0.0,0.0,0.0
5.091,0.01,-0.0,0.01,0.02
5.101,0.0,-0.0,0.01,0.01
5.111,-0.0,0.0,0.01,0.01
5.121,0.0,-0.0,0.01,0.01
5.131,0.01,-0.0,0.01,0.01
5.141,0.0,-0.0,0.0,0.0
5.151,-0.0,-0.01,0.01,0.01
5.161,0.0,-0.01,0.0,0.01
5.172,0.0,-0.0,0.01,0.01
5.181,-0.0,-0.0,0.0,0.0
5.192,-0.0,-0.01,0.01,0.01
5.202,0.0,-0.01,0.01,0.01
5.212,0.0,-0.0,0.01,0.01
5.222,-0.01,-0.0,0.0,0.01
5.232,0.0,-0.01,-0.0,0.01
5.242,-0.01,-0.0,0.01,0.01
5.252,0.0,-0.0,0.0,0.0
5.262,0.0,-0.0,0.0,0.0
5.272,0.01,-0.0,0.01,0.01
5.282,0.0,-0.0,0.0,0.01
5.292,-0.0,-0.0,0.0,0.01
5.302,0.0,-0.01,0.01,0.01
5.312,0.0,0.0,0.02,0.02
5.322,0.01,-0.0,0.01,0.01
5.333,0.01,0.0,0.0,0.01
5.343,-0.0,-0.0,0.01,0.01
5.353,-0.0,-0.0,0.0,0.0
5.363,-0.0,-0.01,0.01,0.01
5.373,0.0,-0.0,-0.0,0.01
5.383,0.0,-0.01,0.01,0.01
5.393,0.01,-0.01,0.0,0.01
5.403,0.0,-0.01,0.0,0.01
5.413,-0.01,0.0,0.01,0.01
5.423,0.01,-0.0,0.0,0.01
5.433,0.0,0.0,0.01,0.01
5.443,0.0,-0.0,0.01,0.01
5.454,0.0,-0.0,0.01,0.01
5.464,0.0,-0.0,-0.01,0.01
5.474,-0.0,0.0,0.01,0.01
5.484,0.0,-0.0,0.02,0.02
5.494,0.0,-0.0,0.01,0.01
5.504,0.0,0.0,0.02,0.02
5.514,-0.0,-0.01,-0.0,0.01
5.524,0.0,0.0,0.0,0.0
5.534,0.0,-0.01,0.01,0.01
5.544,0.01,-0.0,0.01,0.01
5.554,0.01,-0.01,0.0,0.01
5.564,0.01,-0.01,-0.0,0.02
5.574,0.0,-0.0,-0.0,0.01
5.585,0.0,-0.01,-0.0,0.01
5.595,0.01,-0.0,0.01,0.01
5.605,0.0,0.0,0.01,0.01
5.615,-0.01,-0.01,0.0,0.01
5.625,-0.01,0.0,0.01,0.02
5.635,-0.0,-0.0,0.0,0.01
5.645,0.01,-0.0,0.0,0.01
5.655,0.01,-0.0,0.01,0.01
5.665,0.0,-0.0,-0.01,0.01
5.675,-0.0,-0.01,0.01,0.02
5.685,0.0,-0.01,0.01,0.02
5.695,-0.0,-0.01,-0.01,0.01
5.705,-0.0,-0.01,-0.0,0.01
5.715,-0.0,-0.01,0.01,0.01
5.725,-0.0,-0.01,0.0,0.01
5.736,-0.01,-0.01,0.01,0.01
5.746,0.0,-0.01,0.0,0.01
5.756,-0.0,0.0,0.0,0.0
5.766,0.0,-0.0,0.01,0.01
5.776,-0.0,-0.0,0.01,0.01
5.786,-0.0,-0.0,0.01,0.01
5.796,0.0,-0.0,-0.01,0.01
5.806,0.0,0.0,-0.01,0.01
5.816,-0.01,0.0,0.01,0.01
5.826,-0.0,-0.01,0.02,0.02
5.836,0.01,-0.0,-0.0,0.01
5.846,-0.0,-0.0,0.0,0.01
5.857,-0.0,-0.0,0.02,0.02
5.867,0.0,-0.0,0.0,0.01
5.877,0.01,0.0,0.01,0.01
5.887,0.0,-0.0,-0.0,0.01
5.897,0.01,-0.01,0.0,0.01
5.907,0.0,-0.0,0.01,0.01
5.917,0.01,-0.0,0.0,0.01
5.927,0.0,-0.0,0.01,0.01
5.937,-0.0,0.0,-0.0,0.0
5.947,-0.0,-0.0,0.01,0.01
5.957,-0.0,-0.0,0.0,0.0
5.967,0.01,-0.01,0.01,0.01
5.977,-0.0,-0.0,-0.0,0.0
5.988,-0.0,-0.01,0.01,0.01
5.997,0.0,-0.0,0.01,0.01
6.008,-0.0,0.0,0.01,0.01
6.018,0.0,-0.0,0.02,0.02
6.028,0.0,-0.0,0.02,0.02
6.038,0.0,-0.0,0.02,0.02
6.048,-0.0,0.0,0.0,0.0
6.058,0.01,0.0,0.01,0.01
6.068,0.0,-0.01,0.01,0.01
6.078,0.0,-0.0,0.0,0.01
6.088,-0.0,-0.0,0.0,0.0
6.098,0.01,-0.01,0.01,0.02
6.108,0.0,0.01,0.01,0.01
6.118,-0.0,0.0,0.01,0.01
6.128,0.01,0.0,0.01,0.01
6.138,0.0,-0.0,0.01,0.01
6.148,0.01,-0.0,0.0,0.01
6.159,0.0,0.0,-0.0,0.01
6.169,-0.0,0.0,-0.01,0.01
6.179,-0.0,-0.0,-0.0,0.0
6.189,0.0,-0.0,0.01,0.01
6.199,0.0,-0.01,0.01,0.01
6.209,0.01,0.0,0.01,0.01
6.219,-0.0,0.01,0.01,0.01
6.229,-0.0,-0.0,0.01,0.01
6.239,0.0,-0.01,0.01,0.01
6.249,-0.01,0.0,0.0,0.01
6.259,0.0,-0.01,-0.01,0.01
6.269,0.0,0.0,0.01,0.01
6.279,-0.0,-0.0,0.0,0.01
6.29,-0.0,-0.01,0.01,0.02
6.3,0.0,-0.0,0.0,0.01
6.31,-0.0,0.0,-0.0,0.01
6.32,0.0,-0.0,0.0,0.0
6.33,0.0,-0.0,-0.01,0.01
6.34,-0.0,-0.01,0.0,0.01
6.35,0.0,-0.0,0.01,0.01
6.36,-0.01,-0.0,0.0,0.01
6.37,0.01,-0.01,0.01,0.01
6.38,-0.0,0.0,0.0,0.01
6.39,-0.0,-0.0,0.0,0.0
6.4,-0.01,-0.0,0.0,0.01
6.41,-0.0,-0.0,0.01,0.01
6.42,-0.0,-0.0,0.01,0.01
6.431,0.0,-0.0,-0.0,0.0
6.441,0.0,-0.0,0.01,0.01
6.451,-0.01,-0.01,0.02,0.02
6.461,0.01,-0.0,-0.0,0.01
6.471,0.01,-0.01,-0.0,0.01
6.481,0.0,-0.0,0.0,0.0
6.491,0.0,-0.01,0.01,0.01
6.501,0.01,-0.01,-0.0,0.01
6.511,0.0,-0.0,0.0,0.0
6.521,0.01,-0.0,0.01,0.01
6.531,0.01,0.0,0.01,0.01
6.542,0.01,0.0,0.01,0.01
6.551,-0.0,-0.0,0.01,0.01
6.562,-0.0,-0.0,0.01,0.01
6.572,0.01,-0.0,0.01,0.02
6.582,-0.0,0.01,-0.0,0.01
6.592,-0.0,-0.01,0.0,0.01
6.602,0.0,0.0,0.01,0.01
6.612,0.0,0.0,0.0,0.01
6.622,0.0,-0.0,-0.0,0.0
6.632,-0.0,-0.0,0.0,0.0
6.642,0.0,-0.01,0.0,0.01
6.652,-0.0,0.0,0.0,0.0
6.662,0.0,-0.0,0.01,0.01
6.673,-0.0,-0.0,0.0,0.0
6.682,0.01,-0.0,0.01,0.01
6.692,0.01,-0.0,0.0,0.01
6.703,0.01,0.0,0.0,0.01
6.713,0.0,0.0,0.01,0.01
6.723,0.0,-0.0,-0.0,0.0
6.733,0.0,0.0,-0.0,0.0
6.743,0.0,-0.01,-0.0,0.01
6.753,0.0,-0.01,-0.0,0.01
6.763,-0.0,0.0,0.0,0.01
6.773,0.01,0.0,0.01,0.01
6.783,-0.01,-0.0,0.0,0.01
6.793,0.01,0.01,0.0,0.01
6.803,0.0,-0.0,0.01,0.01
6.813,0.0,-0.0,0.01,0.01
6.824,-0.01,-0.0,0.0,0.01
6.834,0.0,0.0,0.0,0.01
6.844,0.0,0.0,0.01,0.01
6.854,0.0,-0.0,0.01,0.01
6.864,-0.01,-0.0,0.01,0.01
6.874,-0.01,0.01,0.02,0.02
6.884,-0.0,0.0,0.01,0.01
6.894,0.0,0.0,0.01,0.01
6.904,0.0,0.01,0.01,0.01
6.914,0.0,-0.0,0.0,0.0
6.924,0.0,-0.0,0.0,0.01
6.934,-0.01,0.0,0.01,0.01
6.944,-0.0,-0.0,0.01,0.01
6.955,0.01,-0.0,0.02,0.02
6.964,-0.01,-0.01,0.0,0.01
6.975,-0.0,-0.0,0.01,0.01
6.985,-0.0,-0.01,0.0,0.01
6.995,0.0,-0.01,0.01,0.01
7.005,0.01,0.01,0.01,0.01
7.015,0.01,-0.0,0.01,0.01
7.025,0.0,-0.0,-0.0,0.0
7.035,0.0,0.0,0.01,0.01
7.045,0.01,-0.0,-0.0,0.01
7.056,0.0,-0.0,0.01,0.01
7.065,-0.0,0.0,0.0,0.01
7.075,-0.01,-0.0,-0.01,0.01
7.086,-0.0,-0.0,0.01,0.01
7.095,0.0,-0.0,0.01,0.01
7.105,0.0,0.0,0.0,0.0
7.116,0.0,-0.0,0.01,0.01
7.126,-0.0,0.0,0.0,0.0
7.136,0.0,-0.01,0.01,0.01
7.146,0.01,0.0,0.01,0.01
7.156,0.0,0.0,0.01,0.01
7.166,0.0,-0.0,0.0,0.0
7.176,0.0,0.0,0.0,0.01
7.186,0.01,0.01,0.0,0.01
7.196,0.01,0.0,0.0,0.01
7.206,0.0,0.0,-0.0,0.01
7.216,0.0,0.0,0.0,0.0
7.226,-0.0,-0.0,0.0,0.01
7.237,-0.0,-0.0,-0.0,0.0
7.247,0.01,0.0,0.01,0.01
7.257,-0.01,-0.01,0.0,0.01
7.267,-0.0,-0.0,0.0,0.0
7.277,0.01,0.0,-0.01,0.01
7.287,-0.0,-0.01,0.0,0.01
7.297,0.01,0.0,0.01,0.02
7.307,-0.01,-0.01,0.01,0.01
7.317,-0.02,-0.0,0.0,0.02
7.327,-0.0,0.0,0.01,0.01
7.337,0.0,0.01,0.0,0.01
7.347,0.01,-0.0,0.0,0.01
7.357,-0.0,-0.0,0.01,0.01
7.368,0.0,0.0,0.01,0.01
7.378,-0.0,-0.0,0.0,0.01
7.388,-0.0,0.0,0.0,0.01
7.398,-0.0,0.0,0.01,0.02
7.408,0.01,-0.01,0.01,0.01
7.418,0.0,-0.0,0.01,0.01
7.428,-0.0,-0.0,0.01,0.01
7.438,-0.0,0.0,0.01,0.01
7.448,-0.0,0.0,-0.0,0.0
7.458,0.0,0.0,0.0,0.0
7.468,0.0,0.0,-0.0,0.01
7.478,0.0,0.0,0.0,0.0
7.488,0.0,0.0,0.01,0.01
7.499,0.0,-0.01,0.0,0.01
7.508,0.0,-0.0,0.0,0.01
7.518,-0.0,0.0,0.01,0.01
7.529,0.0,0.0,-0.0,0.0
7.539,-0.0,-0.0,0.0,0.01
7.549,0.0,-0.0,0.01,0.01
7.559,0.0,-0.0,-0.0,0.0
7.569,-0.0,0.01,0.01,0.01
7.579,-0.01,0.0,0.01,0.01
7.589,0.0,-0.01,0.01,0.01
7.599,-0.0,-0.0,0.01,0.01
7.609,0.01,-0.0,0.01,0.01
7.619,0.01,-0.0,0.0,0.01
7.629,0.0,0.01,0.01,0.01
7.639,0.0,0.0,0.0,0.0
7.649,-0.0,0.0,0.01,0.01
7.66,0.0,-0.0,0.0,0.01
7.67,-0.0,0.0,0.02,0.02
7.68,-0.0,0.0,-0.0,0.01
7.69,0.0,-0.0,0.01,0.02
7.7,-0.0,0.0,-0.0,0.0
7.71,0.01,-0.01,0.01,0.02
7.72,0.01,-0.01,0.0,0.01
7.73,-0.0,-0.0,-0.0,0.0
7.74,0.01,-0.01,-0.0,0.01
7.75,0.0,-0.0,0.01,0.01
7.76,0.0,0.0,0.01,0.01
7.77,0.01,-0.0,0.01,0.01
7.78,0.0,-0.01,-0.0,0.01
7.79,0.0,0.01,0.0,0.01
7.801,0.0,0.0,0.02,0.02
7.811,-0.0,-0.0,0.01,0.01
7.821,-0.0,-0.0,0.0,0.0
7.831,0.0,0.01,0.0,0.01
7.841,0.0,-0.0,-0.0,0.0
7.851,-0.0,-0.0,0.01,0.01
7.861,0.01,0.0,0.01,0.01
7.871,0.01,0.01,0.0,0.01
7.881,0.0,-0.0,-0.0,0.0
7.891,0.0,-0.0,0.01,0.01
7.901,-0.0,0.0,0.0,0.01
7.911,0.0,-0.0,0.01,0.01
7.922,0.0,0.01,0.01,0.01
7.932,0.0,0.0,0.01,0.01
7.942,0.0,-0.01,-0.0,0.01
7.952,-0.0,-0.0,-0.0,0.01
7.962,0.0,-0.0,0.0,0.0
7.972,0.0,-0.0,0.01,0.01
7.982,0.0,0.0,0.01,0.01
7.992,0.0,-0.0,0.01,0.01
8.002,0.0,0.01,-0.01,0.01
8.012,0.0,-0.0,0.0,0.0
8.022,0.0,-0.0,0.01,0.01
8.032,0.0,0.0,0.01,0.01
8.042,0.01,0.0,0.0,0.01
8.052,0.01,0.0,0.0,0.01
8.063,0.01,0.0,0.0,0.01
8.073,0.0,-0.0,0.01,0.01
8.083,-0.0,-0.0,0.0,0.0
8.093,0.01,-0.0,0.02,0.02
8.103,0.01,0.01,0.01,0.01
8.113,-0.01,0.01,0.01,0.01
8.123,0.0,-0.0,0.01,0.01
8.133,0.0,0.01,0.0,0.01
8.143,-0.01,0.0,0.0,0.01
8.153,0.0,-0.0,0.01,0.01
8.163,0.0,-0.0,-0.0,0.01
8.173,0.01,0.0,0.01,0.01
8.183,-0.0,0.0,0.01,0.01
8.193,0.0,-0.0,0.02,0.02
8.204,0.01,-0.0,0.01,0.02
8.214,0.0,0.0,0.0,0.0
8.224,0.0,-0.0,0.01,0.01
8.234,-0.0,0.0,0.0,0.0
8.244,0.01,0.0,-0.0,0.01
8.254,0.0,0.01,0.01,0.01
8.264,-0.0,-0.0,0.0,0.0
8.274,0.0,-0.0,0.0,0.01
8.284,0.0,0.01,0.01,0.01
8.294,0.01,0.0,0.01,0.02
8.304,0.0,-0.0,0.01,0.01
8.314,0.0,0.0,0.0,0.0
8.324,0.0,-0.0,0.01,0.01
8.335,0.0,-0.0,0.0,0.0
8.345,-0.0,0.0,-0.0,0.0
8.355,-0.0,-0.0,0.0,0.0
8.365,-0.0,0.0,-0.01,0.01
8.375,0.01,0.0,0.01,0.01
8.385,0.0,0.0,0.0,0.0
8.395,-0.0,-0.0,0.0,0.01
8.405,-0.0,-0.0,0.01,0.01
8.415,0.0,0.0,0.0,0.01
8.425,0.0,0.0,0.01,0.01
8.435,-0.0,-0.0,-0.0,0.0
8.445,0.01,-0.0,0.01,0.01
8.455,0.01,0.0,0.01,0.01
8.465,-0.0,0.0,0.01,0.01
8.476,-0.0,0.0,0.01,0.01
8.486,-0.0,-0.0,0.01,0.01
8.496,0.0,0.0,0.01,0.01
8.506,-0.0,-0.0,-0.0,0.01
8.516,-0.0,-0.0,0.01,0.01
8.526,-0.0,-0.0,0.0,0.0
8.536,-0.0,0.01,0.01,0.01
8.546,0.0,0.0,0.02,0.02
8.556,0.0,-0.0,0.01,0.01
8.566,0.0,-0.01,0.0,0.01
8.576,0.0,0.0,0.01,0.01
8.586,-0.0,0.0,0.01,0.01
8.597,-0.0,-0.0,0.01,0.02
8.606,-0.01,0.0,0.0,0.01
8.616,-0.0,-0.0,0.0,0.0
8.627,0.0,-0.0,0.0,0.0
8.637,0.01,-0.0,0.01,0.01
8.647,0.0,0.01,0.0,0.01
8.657,-0.01,-0.0,0.0,0.01
8.667,-0.0,-0.0,0.01,0.01
8.677,0.01,0.01,0.01,0.01
8.687,-0.01,-0.0,0.0,0.01
8.697,-0.01,-0.0,0.01,0.01
8.707,-0.0,-0.0,0.01,0.01
8.717,-0.0,-0.01,0.0,0.01
8.727,-0.01,0.0,0.01,0.01
8.738,0.0,-0.0,0.0,0.01
8.747,0.01,0.01,0.0,0.01
8.758,-0.0,0.0,0.0,0.01
8.768,0.0,0.0,0.0,0.0
8.778,-0.01,-0.0,0.0,0.01
8.788,0.0,0.01,0.0,0.01
8.798,-0.0,0.01,0.0,0.01
8.808,-0.01,-0.01,0.01,0.01
8.818,0.01,-0.0,0.01,0.01
8.828,-0.0,-0.01,0.0,0.01
8.838,-0.0,-0.01,0.0,0.01
8.848,0.01,-0.0,0.0,0.01
8.858,0.0,0.0,-0.01,0.01
8.868,-0.01,-0.0,0.01,0.01
8.878,-0.0,-0.01,-0.0,0.01
8.889,0.01,-0.0,0.0,0.01
8.899,0.0,0.0,-0.0,0.0
8.909,0.01,-0.0,0.01,0.01
8.919,0.0,-0.01,0.0,0.01
8.929,-0.0,-0.01,0.0,0.01
8.939,-0.01,-0.01,0.0,0.01
8.949,-0.01,-0.01,0.0,0.01
8.959,-0.0,-0.01,0.02,0.02
8.969,0.01,-0.0,0.0,0.01
8.979,0.01,-0.0,0.01,0.01
8.99,-0.0,-0.0,-0.0,0.0
8.999,0.0,-0.0,-0.0,0.0
9.009,-0.01,-0.01,0.01,0.01
9.02,-0.0,0.0,-0.0,0.0
9.03,-0.01,-0.0,-0.0,0.01
9.04,-0.0,-0.01,0.02,0.02
9.05,-0.0,-0.01,0.01,0.01
9.06,-0.01,-0.0,0.0,0.01
9.07,-0.0,-0.01,0.01,0.01
9.08,0.0,-0.0,-0.0,0.0
9.09,0.0,-0.01,0.0,0.01
9.1,0.0,-0.0,-0.0,0.0
9.11,0.0,-0.0,0.0,0.0
9.12,0.0,-0.01,0.02,0.02
9.13,0.0,-0.01,0.01,0.01
9.14,0.01,-0.01,0.01,0.01
9.15,0.0,0.0,0.0,0.01
9.16,-0.0,-0.0,0.01,0.01
9.171,-0.0,-0.01,0.01,0.02
9.181,-0.0,-0.0,0.0,0.01
9.191,0.0,-0.0,0.02,0.02
9.201,0.01,0.0,-0.0,0.01
9.211,0.0,-0.01,0.01,0.01
9.221,-0.0,-0.0,0.0,0.0
9.231,-0.0,-0.0,0.0,0.01
9.241,0.01,0.01,0.01,0.01
9.251,-0.0,0.0,0.01,0.01
9.261,-0.0,-0.0,-0.0,0.01
9.271,0.0,-0.0,0.01,0.01
9.281,-0.0,0.0,0.0,0.0
9.291,0.01,-0.0,0.01,0.01
9.302,-0.01,-0.0,0.02,0.02
9.312,-0.0,-0.0,0.02,0.02
9.322,0.0,0.0,0.01,0.01
9.332,0.0,0.0,0.01,0.01
9.342,0.0,-0.0,0.01,0.01
9.352,0.0,0.0,-0.0,0.0
9.362,0.0,-0.0,0.01,0.01
9.372,0.0,-0.01,0.01,0.01
9.382,-0.01,0.0,-0.0,0.01
9.392,-0.0,0.01,0.01,0.01
9.402,0.0,0.01,-0.0,0.01
9.412,0.0,0.0,0.01,0.01
9.423,0.0,-0.0,0.0,0.0
9.432,-0.0,-0.0,0.0,0.0
9.442,-0.0,0.01,0.0,0.01
9.453,-0.0,-0.0,-0.0,0.01
9.463,0.01,-0.0,0.01,0.01
9.473,0.0,0.0,0.01,0.01
9.483,0.0,-0.0,0.01,0.01
9.493,0.0,0.0,0.01,0.01
9.503,-0.0,-0.01,-0.0,0.01
9.513,-0.0,-0.0,0.01,0.01
9.523,-0.01,-0.0,0.01,0.01
9.533,-0.01,0.0,0.01,0.01
9.543,0.0,0.01,0.01,0.01
9.553,-0.0,0.0,0.0,0.01
9.563,0.0,0.0,-0.0,0.0
9.574,0.0,0.01,0.01,0.01
9.584,0.0,-0.0,0.01,0.01
9.594,-0.01,-0.0,0.0,0.01
9.604,-0.0,-0.01,0.0,0.01
9.614,-0.0,0.01,0.0,0.01
9.624,-0.0,0.0,0.01,0.01
9.634,-0.0,0.0,0.01,0.01
9.644,-0.01,0.0,0.01,0.01
9.654,-0.0,-0.0,0.01,0.01
9.664,-0.01,-0.0,0.01,0.01
9.674,0.01,0.0,0.01,0.02
9.685,0.0,-0.0,-0.0,0.0
9.694,-0.01,-0.0,0.01,0.01
9.705,-0.01,0.0,0.01,0.01
9.714,-0.0,-0.0,0.01,0.01
9.725,0.0,-0.0,0.0,0.0
9.735,0.0,0.0,0.01,0.01
9.745,0.01,-0.0,-0.0,0.01
9.755,0.0,-0.01,0.01,0.01
9.765,-0.0,-0.0,0.0,0.0
9.775,0.0,0.01,0.02,0.02
9.785,0.01,-0.0,0.02,0.02
9.795,-0.0,-0.0,-0.0,0.0
9.805,-0.0,-0.0,0.01,0.01
9.815,0.0,-0.01,0.0,0.01
9.825,0.0,-0.0,0.0,0.0
9.835,0.01,0.01,0.0,0.01
9.845,0.0,-0.0,0.01,0.01
9.856,-0.0,-0.01,0.01,0.01
9.866,0.0,-0.0,-0.0,0.0
9.876,0.0,-0.0,0.01,0.01
9.886,0.0,0.0,0.01,0.01
9.896,-0.0,0.01,0.01,0.01
9.906,0.0,0.0,0.0,0.01
9.916,-0.0,-0.01,0.0,0.01
9.926,-0.01,0.0,-0.0,0.01
9.936,-0.01,0.0,-0.0,0.01
9.946,-0.0,0.0,0.0,0.01
9.956,0.0,-0.01,-0.0,0.01
9.966,0.0,-0.0,0.01,0.01
9.976,0.0,0.0,0.0,0.0
9.987,0.0,0.01,-0.01,0.01
9.997,0.0,-0.0,0.01,0.01
10.007,0.0,0.0,0.01,0.01
10.017,-0.0,0.0,-0.01,0.01
10.027,-0.0,-0.01,0.01,0.01
10.037,0.0,0.0,0.01,0.01
10.047,-0.01,0.0,0.01,0.01
10.057,0.0,0.0,0.0,0.0
10.067,0.0,-0.0,-0.01,0.01
10.077,0.0,-0.0,0.02,0.02
10.087,-0.01,-0.0,0.01,0.01
10.097,0.0,-0.01,0.01,0.01
10.107,-0.01,0.0,-0.0,0.01
10.118,0.0,0.0,0.0,0.01
10.128,-0.0,0.0,0.01,0.01
10.138,0.0,0.0,0.01,0.01
10.148,0.0,-0.01,0.0,0.01
10.158,-0.0,-0.01,0.0,0.01
10.168,0.01,-0.01,0.01,0.02
10.178,-0.0,-0.0,0.0,0.0
10.188,-0.01,0.0,0.0,0.01
10.198,0.0,-0.0,-0.0,0.0
10.208,0.0,-0.0,0.01,0.01
10.218,-0.0,-0.0,0.0,0.0
10.228,-0.01,-0.0,0.01,0.01
10.238,-0.0,-0.0,0.0,0.0
10.248,-0.0,0.0,-0.0,0.0
10.258,-0.01,0.0,0.0,0.01
10.268,0.01,-0.0,0.01,0.01
10.279,0.01,-0.0,0.01,0.01
10.289,0.0,-0.0,0.0,0.01
10.299,0.01,-0.0,0.0,0.01
10.309,-0.0,-0.0,0.01,0.01
10.319,-0.0,0.0,0.02,0.02
10.329,0.0,-0.01,0.02,0.02
10.339,-0.01,0.0,0.01,0.01
10.349,-0.01,-0.0,0.01,0.01
10.359,-0.0,0.0,0.01,0.01
10.369,0.0,0.0,0.01,0.01
10.379,-0.01,-0.01,0.01,0.02
10.39,-0.0,-0.01,0.0,0.01
10.399,0.0,-0.0,0.01,0.02
10.41,-0.0,0.0,0.0,0.0
10.42,-0.0,-0.0,-0.0,0.0
10.43,0.0,-0.0,0.01,0.01
10.44,0.0,-0.0,0.0,0.01
10.45,-0.0,-0.0,0.0,0.01
10.46,0.0,0.0,0.01,0.01
10.47,0.0,-0.0,-0.0,0.0
10.48,0.0,-0.0,0.01,0.01
10.49,0.01,-0.0,0.02,0.02
10.5,0.0,0.0,-0.0,0.0
10.51,-0.0,-0.0,0.0,0.0
10.52,-0.0,-0.0,0.0,0.0
10.53,-0.0,-0.01,0.01,0.01
10.541,-0.0,-0.0,0.0,0.0
10.551,-0.0,-0.0,-0.0,0.0
10.561,0.0,0.01,0.01,0.01
10.571,-0.0,0.01,0.01,0.01
10.581,0.0,0.01,0.0,0.01
10.591,-0.0,0.0,0.01,0.01
10.601,0.0,0.0,-0.01,0.01
10.611,0.01,0.0,-0.0,0.01
10.621,0.0,-0.0,0.01,0.01
10.631,-0.0,0.0,-0.0,0.01
10.641,-0.0,-0.0,0.01,0.01
10.651,0.01,0.0,0.0,0.01
10.661,-0.01,0.0,0.0,0.01
10.672,-0.01,-0.0,0.01,0.01
10.682,-0.01,-0.01,0.01,0.01
10.692,0.0,-0.0,-0.0,0.01
10.702,-0.01,-0.01,-0.0,0.01
10.712,0.0,0.0,0.01,0.01
10.722,-0.0,-0.0,0.01,0.01
10.732,-0.01,-0.0,0.01,0.01
10.742,-0.01,-0.0,0.0,0.01
10.752,0.01,-0.0,0.0,0.01
10.762,0.0,-0.0,0.0,0.0
10.772,0.0,0.0,0.0,0.0
10.782,-0.0,0.0,0.01,0.01
10.792,-0.0,-0.0,0.01,0.01
10.802,0.0,-0.0,0.0,0.0
10.813,0.08,-0.02,-0.3,0.32
10.823,0.05,-0.02,-0.1,0.12
10.833,-0.13,0.05,0.51,0.53
10.843,0.06,-0.03,-0.19,0.2
10.853,-0.02,0.02,0.07,0.08
10.863,-0.01,0.0,-0.01,0.01
10.873,-0.0,-0.01,0.0,0.01
10.883,-0.0,0.0,0.02,0.02
10.893,0.0,0.01,0.01,0.01
10.903,-0.01,-0.0,0.01,0.01
10.913,-0.01,0.0,0.01,0.02
10.923,-0.01,0.0,0.01,0.02
10.934,-0.02,0.01,0.09,0.09
10.943,-0.03,0.01,0.1,0.11
10.954,0.01,0.0,-0.06,0.06
10.964,0.01,0.0,-0.09,0.09
10.974,-0.0,-0.01,-0.01,0.01
10.984,-0.02,-0.0,0.07,0.08
10.994,0.01,-0.01,-0.08,0.08
11.006,0.01,-0.01,0.01,0.02
11.014,-0.03,0.01,0.04,0.04
11.024,0.0,0.0,0.03,0.03
