time,ax,ay,az,atotal
0.0,-0.01,0.0,0.03,0.03
0.01,0.0,0.0,-0.0,0.0
0.02,-0.0,0.0,-0.0,0.01
0.03,0.0,0.0,-0.0,0.0
0.04,0.01,0.01,-0.0,0.01
0.05,0.01,-0.0,-0.01,0.01
0.06,0.0,-0.0,0.0,0.01
0.071,-0.0,-0.0,0.02,0.02
0.081,-0.01,0.0,0.01,0.02
0.091,0.0,0.0,0.02,0.02
0.101,-0.0,0.01,0.02,0.02
0.111,-0.01,0.01,0.02,0.03
0.121,0.0,-0.0,0.0,0.0
0.131,0.0,0.0,-0.0,0.0
0.141,-0.01,0.01,0.05,0.05
0.151,0.0,-0.0,0.02,0.02
0.161,0.0,0.0,0.01,0.01
0.171,0.01,-0.0,0.0,0.01
0.181,-0.01,-0.0,0.01,0.02
0.191,0.01,0.0,-0.0,0.01
0.201,0.0,-0.01,-0.02,0.02
0.212,-0.0,0.01,0.07,0.07
0.222,0.01,0.0,-0.02,0.02
0.232,0.0,0.0,0.02,0.02
0.242,-0.01,0.0,0.03,0.03
0.252,0.01,-0.01,-0.01,0.02
0.262,0.0,-0.0,0.02,0.02
0.272,-0.0,0.0,0.03,0.03
0.282,0.0,0.0,0.02,0.02
0.292,-0.0,0.0,0.02,0.02
0.302,0.0,-0.0,0.0,0.0
0.312,0.0,-0.0,0.01,0.01
0.322,0.0,0.0,0.0,0.01
0.332,0.0,0.0,0.0,0.01
0.343,0.0,0.0,0.01,0.01
0.353,-0.0,0.01,0.02,0.02
0.363,-0.0,-0.0,0.0,0.01
0.373,0.0,-0.0,0.02,0.02
0.383,-0.0,-0.0,0.03,0.03
0.393,0.0,-0.0,0.0,0.01
0.403,0.01,-0.01,0.02,0.02
0.413,-0.01,-0.0,0.03,0.03
0.423,-0.0,0.0,0.02,0.02
0.433,0.0,0.0,-0.01,0.01
0.443,0.01,-0.0,-0.02,0.03
0.453,-0.0,-0.0,-0.01,0.01
0.463,-0.01,0.0,0.04,0.04
0.474,0.0,-0.0,-0.01,0.01
0.484,0.01,0.0,0.02,0.02
0.494,-0.0,0.0,0.04,0.04
0.504,-0.01,-0.0,0.0,0.01
0.514,0.0,0.0,-0.0,0.0
0.524,0.0,-0.0,-0.01,0.01
0.534,-0.01,0.01,0.03,0.03
0.544,0.01,0.0,0.01,0.01
0.554,0.01,0.0,0.02,0.02
0.564,0.0,0.0,-0.0,0.0
0.574,0.0,0.0,0.02,0.02
0.584,-0.0,-0.0,0.03,0.03
0.594,0.0,-0.0,0.01,0.01
0.604,0.01,0.01,0.01,0.01
0.615,-0.01,0.0,0.01,0.01
0.625,-0.0,-0.0,0.01,0.02
0.635,-0.0,-0.0,0.02,0.02
0.645,0.0,-0.0,0.01,0.01
0.655,0.01,0.01,0.02,0.02
0.665,-0.01,0.01,0.02,0.02
0.675,0.0,0.01,0.01,0.01
0.685,0.01,-0.0,0.0,0.01
0.695,-0.01,-0.0,0.01,0.02
0.705,-0.01,0.01,0.01,0.02
0.715,-0.01,0.01,0.03,0.03
0.725,0.0,0.01,0.02,0.02
0.735,0.01,0.01,0.0,0.01
0.746,0.01,-0.0,-0.04,0.04
0.756,-0.0,0.01,0.02,0.02
0.766,-0.0,0.01,0.04,0.04
0.776,0.01,0.0,-0.02,0.02
0.786,0.01,0.01,0.01,0.02
0.796,0.01,0.01,-0.01,0.02
0.806,0.01,0.01,0.0,0.02
0.816,0.0,0.0,0.02,0.02
0.826,-0.0,-0.0,0.03,0.03
0.836,-0.0,0.0,0.03,0.03
0.846,0.01,0.01,0.02,0.02
0.856,0.0,0.0,0.01,0.01
0.866,0.0,0.0,0.01,0.01
0.877,0.01,-0.0,0.02,0.02
0.887,0.0,0.0,-0.0,0.01
0.896,0.01,-0.0,-0.01,0.01
0.907,0.01,-0.0,0.02,0.02
0.917,-0.01,-0.0,0.04,0.04
0.927,-0.0,-0.0,-0.0,0.0
0.937,0.01,-0.0,-0.01,0.01
0.947,-0.01,0.0,0.04,0.04
0.957,-0.0,0.0,0.01,0.01
0.967,0.01,-0.0,0.01,0.01
0.977,-0.0,0.01,0.02,0.02
0.987,0.01,0.0,0.02,0.02
0.997,0.01,-0.0,0.02,0.02
1.007,0.0,-0.01,0.01,0.02
1.018,0.0,0.01,0.02,0.03
1.028,0.01,0.0,0.01,0.01
1.037,0.01,0.0,0.01,0.01
1.048,-0.0,0.0,0.01,0.01
1.058,-0.0,0.01,0.03,0.03
1.068,0.0,0.0,0.01,0.01
1.078,0.01,0.0,0.01,0.01
1.088,-0.0,0.0,0.02,0.02
1.098,0.0,0.01,0.01,0.01
1.108,0.0,0.0,0.02,0.02
1.118,0.0,0.0,0.01,0.01
1.128,0.01,0.0,0.01,0.02
1.138,-0.0,0.01,0.0,0.01
1.148,0.01,0.01,0.0,0.01
1.159,-0.0,-0.0,0.01,0.01
1.169,0.01,0.01,-0.0,0.01
1.179,-0.0,0.01,0.01,0.01
1.189,-0.0,0.01,0.01,0.02
1.199,-0.0,0.0,0.02,0.02
1.209,0.0,0.0,0.01,0.01
1.219,0.01,-0.0,0.01,0.02
1.229,0.01,0.01,0.01,0.01
1.239,0.02,0.0,0.01,0.02
1.249,0.0,0.01,0.01,0.01
1.259,-0.01,0.01,0.02,0.02
1.269,0.01,0.01,0.0,0.01
1.279,0.01,0.0,0.01,0.02
1.289,-0.0,0.0,0.02,0.02
1.3,0.0,0.0,0.01,0.01
1.31,0.0,0.0,0.01,0.01
1.32,-0.01,0.0,0.01,0.01
1.33,0.0,0.0,0.02,0.02
1.34,0.0,-0.0,0.01,0.02
1.35,0.0,0.0,0.01,0.01
1.36,0.0,0.01,0.01,0.01
1.37,-0.0,0.01,0.01,0.01
1.38,-0.0,0.01,0.02,0.02
1.39,0.01,0.01,0.01,0.01
1.4,-0.0,-0.0,-0.01,0.01
1.41,0.0,-0.01,0.0,0.01
1.42,0.01,-0.0,-0.0,0.01
1.43,0.0,0.0,0.04,0.04
1.441,-0.0,0.0,0.02,0.02
1.451,-0.0,-0.01,0.02,0.02
1.461,0.0,0.0,0.02,0.02
1.471,-0.0,-0.01,-0.0,0.01
1.481,-0.0,0.01,0.01,0.01
1.491,0.0,0.0,0.01,0.01
1.501,-0.0,-0.0,0.01,0.01
1.511,-0.01,-0.0,0.01,0.01
1.521,0.01,0.01,0.01,0.02
1.531,0.0,0.01,0.01,0.01
1.541,0.0,0.01,0.01,0.01
1.551,-0.0,0.01,0.02,0.02
1.561,-0.0,0.01,0.02,0.03
1.571,0.01,0.01,0.02,0.02
1.582,-0.0,0.0,0.01,0.01
1.592,0.0,0.0,0.02,0.02
1.602,-0.0,0.01,0.01,0.01
1.612,0.0,0.01,0.01,0.01
1.622,-0.0,0.0,0.0,0.01
1.632,-0.0,0.01,0.01,0.01
1.642,-0.0,0.0,0.01,0.01
1.652,0.0,0.01,0.01,0.01
1.662,0.0,0.01,0.01,0.02
1.672,0.0,0.01,0.01,0.01
1.682,-0.01,0.0,0.0,0.01
1.692,0.0,0.01,0.02,0.02
1.703,0.0,0.01,0.02,0.02
1.713,-0.0,0.01,0.03,0.03
1.723,0.0,0.0,0.0,0.01
1.733,0.01,-0.0,0.01,0.02
1.743,0.0,0.01,0.01,0.01
1.753,-0.0,0.0,0.02,0.02
1.763,0.01,0.0,0.01,0.01
1.773,-0.01,0.01,0.02,0.02
1.783,0.0,0.01,0.01,0.01
1.793,-0.0,0.01,0.0,0.01
1.803,0.0,-0.0,0.02,0.02
1.813,-0.0,0.01,0.01,0.01
1.823,-0.0,0.01,0.01,0.01
1.833,-0.0,0.01,0.0,0.01
1.843,-0.01,0.01,0.01,0.01
1.854,-0.01,0.01,0.01,0.01
1.864,-0.0,0.01,0.01,0.01
1.874,-0.0,0.01,0.01,0.02
1.884,0.0,0.0,0.01,0.01
1.894,0.0,-0.0,0.01,0.01
1.904,-0.0,0.0,0.01,0.01
1.914,0.0,0.01,0.02,0.02
1.924,0.0,0.01,0.0,0.01
1.934,0.0,0.01,0.01,0.01
1.944,0.01,0.01,0.02,0.02
1.954,0.0,0.0,0.01,0.01
1.964,0.01,0.0,0.01,0.02
1.975,-0.0,0.01,0.01,0.01
1.984,-0.0,0.0,0.01,0.01
1.995,-0.01,0.01,0.01,0.02
2.005,0.0,0.0,0.01,0.01
2.015,0.0,0.0,0.02,0.02
2.025,-0.01,0.0,0.01,0.01
2.035,0.0,0.01,0.01,0.01
2.045,-0.01,0.01,0.01,0.02
2.055,0.01,0.0,0.01,0.01
2.065,0.0,0.0,0.01,0.01
2.075,-0.01,-0.0,0.01,0.02
2.085,0.0,0.0,0.01,0.01
2.095,-0.0,0.01,0.02,0.02
2.105,-0.0,-0.0,0.01,0.01
2.115,0.01,0.0,0.01,0.01
2.126,-0.01,-0.0,0.0,0.01
2.136,0.01,-0.0,0.02,0.02
2.146,0.0,0.0,0.01,0.01
2.156,0.01,0.01,0.01,0.02
2.166,0.0,-0.0,0.02,0.02
2.176,0.0,-0.0,0.01,0.01
2.186,-0.0,0.01,0.01,0.01
2.196,0.0,0.01,0.01,0.02
2.206,0.0,-0.0,0.01,0.01
2.216,0.0,0.0,0.01,0.01
2.227,-0.0,0.01,0.01,0.02
2.236,-0.01,0.01,0.01,0.01
2.246,-0.01,0.0,0.0,0.01
2.257,-0.0,0.0,0.01,0.01
2.267,0.0,0.0,0.01,0.01
2.277,0.0,-0.0,0.02,0.02
2.287,-0.0,0.0,0.0,0.01
2.297,-0.0,0.01,0.0,0.01
2.307,-0.0,-0.0,0.0,0.0
2.317,-0.0,-0.0,0.0,0.01
2.327,-0.0,0.01,0.01,0.01
2.337,0.0,-0.0,0.0,0.0
2.347,0.0,0.0,0.02,0.02
2.357,-0.01,0.0,0.01,0.01
2.367,-0.0,0.01,0.02,0.02
2.377,0.01,0.0,0.01,0.01
2.388,0.01,0.0,0.0,0.01
2.398,-0.0,0.0,0.0,0.01
2.408,0.0,0.01,0.01,0.01
2.418,0.01,0.0,0.01,0.02
2.428,0.0,0.01,0.01,0.02
2.438,-0.0,0.0,0.02,0.02
2.448,-0.01,0.01,0.01,0.02
2.458,-0.0,0.0,0.02,0.02
2.468,-0.0,0.0,0.01,0.01
2.478,-0.01,0.01,0.0,0.02
2.488,-0.01,0.0,0.01,0.02
2.498,-0.01,-0.0,0.02,0.02
2.508,-0.0,0.01,0.02,0.02
2.519,-0.0,-0.0,0.01,0.01
2.528,0.0,-0.0,0.01,0.01
2.539,-0.0,0.01,0.02,0.02
2.549,-0.0,0.0,0.02,0.02
2.559,0.01,0.01,0.01,0.01
2.569,0.01,0.0,0.01,0.02
2.579,-0.0,-0.0,0.01,0.02
2.589,-0.01,0.0,0.01,0.01
2.599,-0.0,0.01,0.0,0.01
2.609,0.01,0.01,0.02,0.02
2.619,0.0,0.01,0.0,0.01
2.629,0.0,0.01,0.02,0.02
2.639,-0.0,0.01,0.01,0.01
2.649,-0.0,0.01,0.0,0.01
2.66,0.01,0.0,0.0,0.01
2.669,0.0,0.0,0.01,0.01
2.68,0.0,0.0,0.01,0.02
2.69,-0.0,-0.0,0.0,0.0
2.7,-0.0,-0.0,0.02,0.02
2.71,-0.0,0.0,0.01,0.01
2.72,0.0,0.01,0.01,0.01
2.73,0.01,0.0,0.01,0.01
2.74,0.0,-0.0,0.02,0.02
2.75,0.0,0.0,0.02,0.02
2.76,-0.0,0.0,0.01,0.01
2.77,-0.01,0.01,0.0,0.01
2.78,-0.0,0.0,0.01,0.01
2.79,-0.01,0.01,0.0,0.01
2.801,-0.0,0.01,0.01,0.02
2.811,-0.0,-0.0,0.01,0.01
2.821,0.0,-0.0,0.0,0.0
2.831,0.0,0.0,0.01,0.01
2.841,-0.0,0.01,0.0,0.01
2.851,-0.01,0.0,0.02,0.02
2.861,-0.01,0.0,0.02,0.02
2.871,-0.0,0.01,0.01,0.01
2.881,-0.0,-0.0,0.0,0.01
2.891,-0.0,0.0,0.01,0.01
2.901,-0.01,0.01,0.01,0.01
2.911,-0.01,0.01,0.01,0.02
2.921,0.01,0.01,0.0,0.01
2.931,0.0,-0.0,0.01,0.01
2.941,0.0,0.0,0.01,0.01
2.952,-0.0,0.01,0.01,0.02
2.962,0.01,0.0,0.01,0.01
2.972,-0.0,0.0,0.01,0.01
2.982,-0.0,0.01,0.02,0.02
2.992,-0.01,0.0,0.02,0.02
3.002,-0.01,0.0,0.0,0.01
3.012,0.0,0.01,0.02,0.02
3.022,-0.01,0.01,0.0,0.02
3.032,-0.01,-0.0,0.02,0.02
3.042,-0.0,-0.0,0.01,0.01
3.052,-0.01,-0.0,0.02,0.02
3.063,-0.0,0.01,0.01,0.01
3.072,0.01,0.0,0.0,0.01
3.083,0.0,0.01,0.01,0.01
3.093,-0.0,0.0,0.02,0.02
3.103,0.0,-0.0,0.0,0.0
3.113,0.01,0.01,0.01,0.02
3.123,0.0,0.01,0.01,0.01
3.133,0.0,0.0,0.01,0.01
3.143,0.0,0.01,0.01,0.02
3.153,-0.01,0.01,0.01,0.02
3.163,-0.0,0.01,0.02,0.02
3.173,0.0,0.0,0.01,0.01
3.183,0.0,0.0,0.01,0.01
3.194,-0.01,-0.0,0.01,0.01
3.203,0.0,0.01,0.0,0.01
3.213,0.0,0.01,0.02,0.02
3.224,-0.0,0.01,0.01,0.01
3.234,0.0,0.01,0.01,0.02
3.244,-0.01,0.0,0.01,0.01
3.254,-0.0,0.01,0.01,0.01
3.264,-0.0,0.01,0.01,0.01
3.274,-0.0,0.0,0.01,0.01
3.284,0.0,0.0,0.0,0.0
3.294,-0.0,0.0,-0.0,0.0
3.304,-0.0,0.01,0.01,0.01
3.314,0.0,0.0,0.01,0.01
3.324,0.0,0.01,0.01,0.01
3.334,0.0,0.01,0.01,0.01
3.345,-0.0,0.01,-0.0,0.01
3.355,-0.0,0.01,0.01,0.01
3.365,-0.0,0.0,0.0,0.01
3.375,-0.01,0.01,0.01,0.01
3.385,-0.01,0.01,0.01,0.01
3.395,-0.01,0.01,0.01,0.02
3.405,-0.0,0.01,0.01,0.01
3.415,0.0,0.01,0.0,0.01
3.425,0.01,0.01,0.01,0.02
3.435,0.01,0.01,0.01,0.02
3.445,0.0,0.01,0.01,0.01
3.455,-0.01,0.01,0.01,0.02
3.465,0.0,0.01,0.0,0.01
3.475,-0.0,0.01,0.01,0.02
3.486,-0.0,-0.0,0.02,0.02
3.496,-0.0,0.01,0.01,0.01
3.506,-0.0,0.01,0.01,0.01
3.516,-0.0,0.01,0.01,0.01
3.526,0.0,0.01,0.01,0.02
3.536,0.0,0.01,0.01,0.01
3.546,-0.01,0.01,0.01,0.02
3.556,-0.01,0.01,0.01,0.02
3.566,0.01,0.0,0.01,0.01
3.576,0.0,0.01,0.01,0.02
3.586,-0.0,0.01,0.01,0.01
3.596,0.0,0.01,-0.0,0.01
3.606,0.0,0.01,0.01,0.02
3.616,-0.01,0.01,0.01,0.01
3.626,-0.0,-0.0,0.01,0.01
3.637,0.0,0.01,0.01,0.01
3.647,-0.0,0.0,0.01,0.01
3.657,0.0,0.0,0.02,0.02
3.667,-0.0,-0.0,0.01,0.01
3.677,0.0,0.01,0.01,0.02
3.687,-0.0,0.01,0.01,0.01
3.697,0.0,0.01,0.01,0.02
3.707,0.0,0.01,0.01,0.01
3.717,0.0,0.0,0.01,0.01
3.727,-0.0,0.01,0.01,0.01
3.737,-0.0,0.01,0.01,0.01
3.747,-0.0,0.01,0.01,0.01
3.757,0.01,0.01,0.02,0.02
3.768,0.0,0.01,0.01,0.01
3.778,0.0,0.01,0.02,0.02
3.788,-0.0,0.0,0.01,0.01
3.798,-0.0,0.0,0.0,0.01
3.808,0.0,0.0,0.01,0.01
3.818,-0.0,0.01,0.02,0.02
3.828,0.0,0.02,0.0,0.02
3.838,0.0,0.02,0.01,0.02
3.848,0.0,0.0,0.01,0.01
3.858,0.0,0.0,0.02,0.02
3.868,-0.01,0.0,0.01,0.02
3.878,0.01,0.0,0.01,0.01
3.888,-0.0,0.01,0.02,0.02
3.898,0.0,0.01,0.01,0.01
3.909,-0.0,0.01,0.01,0.01
3.919,0.0,0.0,0.02,0.02
3.929,0.0,0.0,0.01,0.01
3.939,-0.0,0.01,0.01,0.02
3.949,-0.0,0.01,0.01,0.01
3.959,-0.0,-0.0,0.0,0.0
3.969,-0.0,0.01,0.02,0.02
3.979,0.0,0.01,0.02,0.02
3.989,-0.01,0.01,0.0,0.01
3.999,0.01,0.01,0.01,0.01
4.009,0.0,0.01,0.01,0.02
4.019,-0.0,0.01,0.01,0.01
4.03,-0.0,0.01,0.0,0.01
4.039,-0.0,0.01,0.01,0.01
4.05,-0.0,0.01,0.01,0.01
4.06,-0.0,0.0,0.01,0.01
4.07,-0.0,0.0,0.01,0.01
4.08,0.01,0.0,0.01,0.02
4.09,0.0,0.0,0.02,0.02
4.1,0.0,0.0,0.02,0.02
4.11,0.01,0.01,0.01,0.01
4.12,0.01,0.0,0.01,0.01
4.13,-0.0,0.01,0.02,0.02
4.14,-0.0,0.01,0.01,0.02
4.15,0.01,0.0,0.01,0.01
4.16,0.01,0.0,0.01,0.01
4.171,-0.0,0.0,0.01,0.01
4.181,-0.0,0.01,0.01,0.01
4.191,-0.0,0.01,0.01,0.02
4.201,0.01,0.0,0.0,0.01
4.211,0.0,0.01,0.02,0.02
4.221,-0.01,0.0,0.02,0.02
4.231,-0.01,0.01,0.01,0.01
4.241,-0.01,0.01,0.01,0.01
4.251,-0.01,0.01,0.01,0.02
4.261,-0.0,0.01,0.01,0.01
4.271,0.0,0.01,0.02,0.02
4.281,0.0,0.01,0.01,0.02
4.292,-0.0,0.01,0.02,0.02
4.301,0.01,0.01,0.02,0.02
4.311,-0.0,0.01,0.01,0.01
4.322,-0.0,0.01,0.01,0.02
4.332,-0.01,0.01,0.01,0.01
4.342,-0.0,0.01,0.01,0.01
4.352,0.0,0.01,0.01,0.01
4.362,0.01,0.01,0.01,0.01
4.372,0.0,0.01,0.01,0.02
4.382,-0.0,0.01,0.02,0.02
4.392,-0.01,0.01,0.01,0.01
4.402,-0.01,0.01,0.02,0.02
4.412,-0.01,0.01,0.01,0.02
4.422,0.01,0.0,0.01,0.01
4.432,0.01,0.01,0.01,0.02
4.442,0.0,0.01,0.01,0.01
4.453,0.0,0.01,0.01,0.01
4.463,0.0,0.01,0.01,0.01
4.473,-0.01,0.01,0.0,0.01
4.483,-0.0,0.0,0.01,0.01
4.493,0.01,0.0,0.0,0.01
4.503,0.0,0.01,0.02,0.02
4.513,0.0,0.01,0.01,0.02
4.523,0.0,0.01,0.01,0.01
4.533,0.0,0.01,0.01,0.02
4.543,-0.0,0.01,0.02,0.02
4.553,0.0,0.01,0.0,0.01
4.563,-0.0,0.0,0.01,0.01
4.573,-0.01,0.02,0.01,0.02
4.584,-0.0,0.01,0.02,0.02
4.594,0.0,0.0,0.02,0.02
4.604,-0.01,0.01,0.01,0.01
4.614,-0.01,0.01,0.02,0.02
4.624,0.0,0.01,0.01,0.01
4.634,0.01,0.01,0.01,0.02
4.644,0.0,0.01,0.01,0.01
4.654,0.0,0.01,0.01,0.01
4.664,0.0,0.01,0.0,0.01
4.674,0.01,-0.0,0.01,0.02
4.684,-0.01,0.0,0.01,0.01
4.694,-0.01,0.01,0.01,0.01
4.704,-0.0,0.01,0.01,0.01
4.714,-0.01,0.01,0.01,0.02
4.724,-0.0,0.01,-0.0,0.01
4.735,-0.0,-0.0,0.01,0.01
4.745,0.0,0.0,-0.0,0.0
4.755,0.0,0.0,0.02,0.02
4.765,0.01,0.02,0.01,0.02
4.775,-0.0,0.01,0.01,0.01
4.785,0.0,0.01,0.0,0.01
4.795,-0.0,0.01,0.01,0.02
4.805,-0.0,0.01,0.01,0.01
4.815,-0.0,0.01,0.0,0.01
4.825,-0.0,0.01,0.01,0.01
4.835,-0.0,0.01,0.01,0.01
4.845,-0.01,-0.0,0.01,0.01
4.855,0.0,-0.0,0.01,0.01
4.866,-0.0,0.0,0.01,0.01
4.876,-0.0,0.01,0.01,0.01
4.886,0.0,0.01,0.01,0.02
4.896,0.0,0.01,0.01,0.01
4.906,0.01,0.0,0.01,0.01
4.916,-0.01,0.01,0.01,0.01
4.926,-0.0,0.01,0.01,0.02
4.936,-0.0,0.01,0.01,0.02
4.946,-0.01,0.01,0.01,0.02
4.956,-0.0,0.0,0.01,0.01
4.966,0.0,0.01,0.02,0.02
4.977,0.0,0.0,0.01,0.01
4.986,-0.01,0.01,0.02,0.02
4.996,-0.0,0.01,0.01,0.01
5.007,0.0,0.01,0.0,0.01
5.017,-0.01,0.0,0.0,0.01
5.027,-0.0,0.0,0.01,0.01
5.037,-0.0,0.01,0.02,0.03
5.047,0.0,0.01,0.01,0.02
5.057,0.01,0.01,0.01,0.01
5.067,0.0,0.01,0.01,0.01
5.077,0.0,0.01,0.01,0.02
5.087,-0.01,0.01,0.01,0.02
5.097,-0.0,0.01,0.01,0.01
5.107,-0.0,0.0,0.01,0.01
5.117,-0.0,0.01,0.01,0.01
5.128,-0.01,0.01,0.01,0.01
5.138,-0.01,0.01,0.01,0.02
5.148,0.0,0.01,0.01,0.02
5.158,-0.0,0.01,0.01,0.02
5.168,-0.01,0.01,0.01,0.01
5.178,0.0,0.01,0.01,0.02
5.188,0.01,0.0,0.01,0.01
5.198,0.0,0.01,0.02,0.02
5.208,-0.01,0.0,0.02,0.02
5.218,-0.0,0.0,0.0,0.01
5.228,0.0,0.01,0.01,0.01
5.238,0.0,0.01,0.02,0.02
5.248,0.0,0.01,0.0,0.01
5.258,0.0,0.01,0.01,0.01
5.269,-0.0,-0.0,0.01,0.01
5.279,0.0,0.0,0.01,0.01
5.289,-0.0,0.01,0.01,0.01
5.299,0.0,0.01,0.01,0.01
5.309,0.01,0.01,0.02,0.02
5.319,0.01,0.0,0.01,0.01
5.329,0.01,0.01,0.01,0.01
5.339,-0.01,0.01,0.01,0.01
5.349,0.0,0.01,0.0,0.01
5.359,0.01,0.01,0.01,0.01
5.369,-0.0,0.0,0.01,0.01
5.379,-0.0,0.0,0.01,0.01
5.389,-0.0,0.01,0.0,0.01
5.399,0.0,0.01,0.01,0.02
5.41,-0.0,0.01,0.01,0.01
5.42,-0.0,-0.0,0.01,0.01
5.43,-0.0,0.0,0.02,0.02
5.44,-0.0,0.01,0.01,0.01
5.45,-0.0,0.01,0.0,0.01
5.46,0.01,0.01,0.01,0.02
5.47,0.0,0.01,0.01,0.02
5.48,0.0,0.0,0.01,0.01
5.49,-0.01,0.0,0.0,0.01
5.5,-0.01,0.01,-0.0,0.01
5.51,0.01,0.01,0.01,0.02
5.52,0.0,0.01,0.01,0.01
5.531,-0.0,0.01,0.01,0.02
5.54,-0.0,0.01,0.03,0.03
5.551,-0.0,0.0,0.01,0.01
5.561,-0.0,0.0,0.02,0.02
5.571,-0.01,0.01,0.01,0.01
5.581,-0.0,0.01,0.0,0.01
5.591,-0.0,0.0,0.02,0.02
5.601,-0.0,0.0,-0.01,0.01
5.611,0.01,0.01,0.02,0.03
5.621,-0.0,0.01,0.01,0.02
5.631,-0.01,0.01,0.01,0.01
5.641,0.0,0.01,0.02,0.02
5.651,-0.01,0.01,0.0,0.02
5.662,0.01,0.01,0.01,0.02
5.671,0.01,0.01,0.01,0.01
5.682,0.01,0.01,0.01,0.02
5.692,0.01,0.01,0.0,0.02
5.702,0.0,0.0,0.0,0.01
5.712,0.0,0.0,0.02,0.02
5.722,0.0,-0.0,0.0,0.0
5.732,-0.01,0.01,0.0,0.01
5.742,-0.0,0.01,0.02,0.02
5.752,-0.0,-0.0,0.01,0.01
5.762,-0.0,0.01,0.02,0.02
5.772,-0.01,0.0,0.0,0.01
5.782,-0.01,0.0,0.01,0.01
5.792,0.0,0.01,0.01,0.01
5.802,0.0,0.01,-0.0,0.02
5.813,-0.0,0.01,0.02,0.02
5.823,-0.0,0.0,0.01,0.01
5.833,0.01,0.0,0.02,0.02
5.843,0.0,0.01,0.01,0.01
5.853,0.0,0.0,-0.0,0.0
5.863,-0.0,-0.0,0.02,0.02
5.873,0.0,0.01,0.01,0.01
5.883,0.01,0.01,0.0,0.01
5.893,0.0,0.01,0.01,0.02
5.903,-0.0,0.0,0.02,0.02
5.913,-0.0,0.01,0.01,0.01
5.923,-0.01,0.01,0.01,0.01
5.933,0.0,0.0,0.01,0.01
5.944,0.0,0.01,0.0,0.01
5.954,0.0,0.01,0.0,0.01
5.964,0.0,0.01,0.01,0.01
5.974,-0.0,0.01,0.01,0.02
5.984,-0.01,0.01,0.01,0.02
5.994,0.0,0.01,0.02,0.02
6.004,0.0,0.01,0.01,0.02
6.014,0.0,0.01,0.01,0.02
6.024,0.0,0.01,0.01,0.02
6.034,-0.0,0.01,0.01,0.02
6.044,0.0,0.01,0.02,0.02
6.054,0.01,0.01,0.0,0.01
6.064,0.01,0.01,0.01,0.02
6.074,0.0,0.01,0.01,0.01
6.084,0.01,0.01,0.01,0.02
6.095,0.0,0.01,0.01,0.02
6.105,-0.01,0.01,0.03,0.03
6.115,0.01,0.01,-0.0,0.01
6.125,-0.0,0.01,0.01,0.02
6.135,-0.0,0.01,0.01,0.01
6.145,0.0,0.01,0.0,0.01
6.155,0.0,0.01,-0.0,0.01
6.165,-0.0,0.01,0.01,0.02
6.175,0.0,0.01,0.01,0.01
6.185,-0.0,0.0,0.01,0.01
6.195,-0.0,0.0,0.0,0.0
6.205,0.0,0.01,0.01,0.02
6.215,-0.0,0.01,0.02,0.02
6.226,-0.0,0.01,0.01,0.01
6.235,0.0,0.01,0.01,0.01
6.246,0.01,0.0,0.02,0.02
6.256,-0.01,0.0,0.01,0.01
6.266,0.0,0.01,0.01,0.01
6.276,-0.0,0.0,0.01,0.01
6.286,-0.0,0.0,0.02,0.02
6.296,-0.01,0.01,0.01,0.01
6.306,0.0,0.01,-0.0,0.01
6.316,0.01,0.01,0.01,0.02
6.326,-0.0,0.01,0.02,0.02
6.336,0.0,0.01,0.01,0.02
6.346,0.01,0.01,0.01,0.01
6.356,0.0,0.01,0.0,0.01
6.366,-0.0,0.01,0.02,0.02
6.377,0.01,0.0,0.02,0.02
6.387,0.0,0.01,-0.0,0.01
6.397,-0.0,0.01,0.01,0.01
6.407,0.01,0.0,0.0,0.01
6.417,0.0,0.0,0.0,0.0
6.427,-0.0,0.01,0.0,0.01
6.437,0.0,-0.0,0.01,0.01
6.447,0.01,0.0,0.02,0.02
6.457,-0.0,0.01,0.01,0.02
6.467,0.0,0.0,0.01,0.02
6.477,-0.0,0.01,0.01,0.02
6.487,-0.0,0.01,0.01,0.01
6.497,0.01,0.01,0.02,0.02
6.508,0.01,0.01,0.0,0.01
6.518,-0.0,0.01,-0.0,0.01
6.528,0.0,0.01,0.01,0.01
6.538,0.0,0.01,0.0,0.01
6.548,0.0,0.01,0.01,0.02
6.558,-0.01,0.01,0.02,0.02
6.568,0.0,0.0,0.01,0.01
6.578,0.0,0.0,0.01,0.01
6.588,-0.0,0.01,0.0,0.01
6.598,0.0,0.01,0.01,0.01
6.608,0.0,0.0,-0.0,0.0
6.618,0.01,-0.0,0.01,0.02
6.629,0.01,0.01,0.01,0.01
6.638,0.0,-0.0,0.01,0.01
6.648,-0.0,-0.0,0.01,0.01
6.659,0.01,0.0,0.01,0.01
6.669,0.0,0.01,0.01,0.02
6.679,-0.0,0.01,0.01,0.02
6.689,-0.0,0.01,-0.0,0.01
6.699,0.0,0.01,0.02,0.02
6.709,-0.0,0.01,0.01,0.01
6.719,0.0,0.01,0.01,0.01
6.729,0.0,0.01,0.01,0.01
6.739,-0.01,0.0,0.01,0.01
6.749,0.01,0.01,0.01,0.02
6.759,0.0,0.01,0.02,0.02
6.77,0.01,0.01,0.01,0.01
6.78,-0.0,0.01,0.02,0.02
6.79,-0.0,0.0,0.01,0.01
6.8,-0.0,0.01,0.01,0.01
6.81,-0.01,-0.0,0.0,0.01
6.82,-0.0,0.01,0.02,0.02
6.83,0.0,0.01,0.02,0.02
6.84,0.01,0.01,0.0,0.01
6.85,-0.01,0.0,0.0,0.01
6.86,0.0,0.01,0.0,0.01
6.87,-0.01,0.01,-0.0,0.02
6.88,0.01,0.01,0.0,0.02
6.89,0.0,0.01,0.01,0.01
6.9,-0.0,0.01,-0.0,0.01
6.911,0.01,0.01,0.0,0.01
6.921,0.0,0.01,0.01,0.01
6.93,-0.0,0.01,0.0,0.01
6.941,0.0,0.0,0.01,0.01
6.951,-0.0,0.01,0.01,0.01
6.961,0.0,0.0,0.01,0.01
6.971,0.0,0.01,0.01,0.02
6.981,0.0,0.01,0.0,0.01
6.991,0.0,0.0,0.01,0.01
7.001,-0.0,0.0,0.01,0.01
7.011,0.0,0.01,0.01,0.01
7.021,0.0,0.01,0.01,0.02
7.031,0.0,0.0,0.01,0.01
7.041,-0.0,0.01,0.02,0.02
7.052,0.0,0.0,0.01,0.01
7.062,-0.0,0.0,0.01,0.01
7.072,-0.0,0.0,0.01,0.01
7.082,0.0,0.01,0.01,0.01
7.092,0.01,0.01,-0.01,0.01
7.102,-0.01,0.0,0.03,0.03
7.112,-0.0,0.0,-0.0,0.0
7.122,0.0,0.01,0.0,0.01
7.132,0.0,0.01,0.03,0.03
7.142,-0.0,0.0,-0.01,0.01
7.152,-0.0,-0.0,0.02,0.02
7.162,-0.01,-0.01,0.0,0.01
7.172,-0.0,-0.0,0.01,0.01
7.182,-0.0,0.0,0.01,0.01
7.193,-0.01,-0.0,0.01,0.02
7.203,-0.0,0.01,0.01,0.01
7.213,-0.01,-0.0,0.02,0.02
7.223,-0.0,0.01,0.02,0.02
7.233,-0.01,0.01,0.02,0.02
7.243,0.0,0.0,0.0,0.0
7.253,0.01,0.0,-0.01,0.01
7.263,-0.01,0.0,0.01,0.01
7.273,0.0,0.0,0.0,0.0
7.283,-0.0,-0.0,0.02,0.02
7.293,0.01,0.01,-0.03,0.04
7.303,0.01,-0.0,-0.01,0.02
7.313,-0.02,0.01,0.1,0.1
7.323,0.01,-0.01,-0.05,0.05
7.334,-0.01,0.02,0.03,0.04
7.344,0.01,0.0,0.02,0.02
7.354,0.01,0.0,-0.01,0.01
7.364,0.0,0.0,0.01,0.01
7.374,-0.03,-0.01,0.04,0.05
7.384,-0.02,0.02,0.14,0.14
7.394,0.05,-0.01,-0.19,0.19
7.404,0.0,0.0,-0.04,0.04
7.414,-0.04,0.02,0.16,0.16
7.424,0.0,0.0,-0.03,0.03
7.434,0.03,-0.01,-0.07,0.08
7.445,-0.01,0.01,0.06,0.06
7.454,-0.0,0.0,0.04,0.04
7.464,0.01,-0.0,-0.03,0.03
7.475,-0.0,0.0,0.01,0.01
7.485,0.0,-0.0,0.05,0.05
7.495,0.0,0.0,-0.0,0.0
7.505,0.0,-0.0,-0.01,0.01
7.515,-0.0,0.01,0.02,0.02
7.525,-0.0,0.0,0.01,0.01
7.535,0.01,0.01,-0.01,0.01
7.545,0.01,0.01,0.01,0.02
7.555,0.0,0.01,0.02,0.02
7.565,0.0,0.01,0.0,0.01
7.575,0.0,0.01,0.01,0.01
7.585,0.0,0.01,0.02,0.02
7.596,0.0,0.0,0.02,0.02
7.606,0.0,-0.0,0.01,0.01
7.616,0.0,0.01,0.01,0.01
7.626,-0.0,0.0,0.01,0.01
7.636,-0.0,0.01,0.01,0.01
7.646,-0.01,0.0,0.01,0.01
7.656,-0.0,0.0,0.01,0.02
7.666,0.0,0.0,0.01,0.01
7.676,0.01,-0.0,-0.0,0.01
7.686,0.01,0.0,0.01,0.01
7.696,0.0,0.0,0.0,0.01
7.706,-0.01,-0.0,0.02,0.02
7.716,0.0,0.0,-0.0,0.0
7.727,0.0,0.0,-0.0,0.01
7.737,-0.0,0.0,0.01,0.01
7.747,0.0,0.0,0.01,0.01
7.757,0.0,0.0,0.0,0.0
7.767,0.0,0.0,0.01,0.01
7.777,-0.0,0.01,0.01,0.02
7.787,0.01,0.01,0.01,0.02
7.797,0.0,-0.0,0.01,0.01
7.807,0.0,-0.0,0.02,0.02
7.817,-0.0,0.0,0.01,0.01
7.827,-0.0,0.0,0.01,0.01
7.837,0.0,-0.0,0.01,0.01
7.847,0.0,-0.0,-0.0,0.0
7.857,0.01,0.0,0.01,0.01
7.867,-0.01,-0.0,0.01,0.02
7.878,0.01,0.0,-0.0,0.01
7.888,0.0,0.0,0.02,0.02
7.898,0.0,0.01,0.03,0.03
7.908,-0.01,0.01,0.04,0.05
7.918,-0.0,-0.0,-0.01,0.01
7.928,0.0,0.0,-0.01,0.01
7.938,0.0,0.01,0.02,0.02
7.948,0.0,-0.0,-0.0,0.01
7.958,0.0,0.01,0.01,0.01
7.968,-0.0,0.0,0.02,0.02
7.978,-0.0,-0.0,0.0,0.0
7.988,0.01,-0.0,0.01,0.02
7.998,0.0,0.01,0.01,0.02
8.009,0.0,0.01,0.01,0.01
8.019,0.01,-0.0,-0.01,0.02
8.029,0.02,0.0,-0.06,0.06
8.039,-0.02,0.02,0.1,0.1
8.049,-0.0,0.01,0.01,0.01
8.059,0.01,0.01,-0.03,0.04
8.069,-0.01,0.01,0.06,0.06
8.079,0.02,0.01,0.02,0.03
8.089,0.01,-0.0,-0.0,0.01
8.099,-0.0,0.02,0.02,0.03
8.109,0.0,0.0,0.01,0.02
8.119,0.01,0.0,0.0,0.01
8.129,0.01,0.0,-0.03,0.03
8.139,-0.01,0.01,0.05,0.05
8.15,0.0,0.0,0.02,0.02
8.159,0.01,-0.0,-0.03,0.03
8.17,-0.01,0.0,0.04,0.04
8.18,-0.01,0.01,0.04,0.04
8.19,0.01,0.0,-0.02,0.02
8.2,-0.0,0.01,-0.0,0.01
8.21,0.0,0.01,0.03,0.03
8.22,0.0,0.01,0.01,0.02
8.23,0.01,0.0,0.0,0.01
8.24,0.01,0.01,0.02,0.02
8.25,-0.0,0.0,0.0,0.0
8.26,-0.0,0.0,-0.0,0.0
8.27,-0.01,0.01,0.01,0.02
8.28,-0.0,0.02,0.01,0.02
8.29,0.0,0.0,0.0,0.01
8.301,-0.0,-0.0,0.01,0.01
8.311,-0.0,-0.0,0.01,0.01
8.321,0.0,0.0,0.01,0.01
8.331,0.0,0.0,0.0,0.01
8.341,-0.0,0.0,0.01,0.01
8.351,-0.0,0.0,0.01,0.01
8.361,-0.0,0.0,0.0,0.0
8.371,0.0,0.0,0.0,0.0
8.381,0.0,0.0,0.01,0.01
8.391,0.0,-0.0,0.02,0.02
8.401,-0.0,0.0,0.01,0.01
8.411,0.01,-0.0,0.01,0.01
8.421,0.01,-0.0,0.01,0.01
8.431,0.01,-0.0,0.01,0.01
8.442,0.0,0.0,0.01,0.01
8.452,0.0,-0.01,0.02,0.02
8.462,-0.0,-0.0,-0.0,0.0
8.472,0.01,0.0,0.01,0.01
8.482,0.01,0.0,0.01,0.01
8.492,0.01,-0.01,0.01,0.01
8.502,-0.0,0.0,0.02,0.02
8.512,0.0,0.01,0.01,0.01
8.522,0.01,-0.0,0.01,0.02
8.532,0.0,0.0,0.02,0.02
8.543,0.01,0.01,0.0,0.01
8.552,-0.0,0.01,0.0,0.01
8.563,0.01,0.01,0.01,0.01
8.573,0.01,0.0,0.01,0.01
8.583,0.0,0.0,0.0,0.0
8.593,0.0,-0.0,0.01,0.01
8.603,0.0,0.0,0.04,0.04
8.613,-0.01,0.0,0.01,0.01
8.623,-0.0,0.01,0.0,0.01
8.633,0.0,0.0,0.02,0.02
8.643,0.01,0.0,-0.02,0.03
8.653,0.0,0.0,-0.01,0.01
8.663,-0.01,0.01,0.01,0.02
8.673,0.01,0.0,-0.01,0.01
8.683,-0.0,0.0,0.01,0.01
8.694,-0.0,0.0,0.02,0.02
8.704,0.01,0.01,0.01,0.01
8.714,0.01,-0.0,0.01,0.02
8.724,-0.01,0.0,0.02,0.02
8.734,-0.01,0.0,0.04,0.04
8.744,0.01,0.0,-0.02,0.02
8.754,0.01,0.01,-0.01,0.02
8.764,-0.0,0.01,0.03,0.03
8.774,0.0,0.0,-0.01,0.01
8.784,0.01,-0.0,0.01,0.01
8.794,-0.0,0.0,0.02,0.02
8.804,-0.0,0.01,0.01,0.01
8.814,-0.0,0.0,0.01,0.01
8.824,0.0,0.01,-0.0,0.01
8.835,-0.0,0.01,0.0,0.01
8.845,-0.0,-0.01,0.02,0.02
8.855,-0.0,0.0,0.03,0.03
8.865,0.01,0.0,-0.0,0.01
8.875,0.01,0.0,-0.01,0.01
8.885,0.0,0.0,0.01,0.02
8.895,-0.0,0.0,0.03,0.03
8.905,-0.0,0.0,-0.0,0.0
8.915,0.0,-0.0,0.02,0.02
8.925,-0.01,-0.0,0.02,0.02
8.935,-0.01,0.01,-0.01,0.01
8.945,-0.0,-0.0,0.01,0.01
8.956,0.0,0.0,0.01,0.01
8.966,-0.0,0.01,0.0,0.01
8.976,0.0,0.0,0.02,0.02
8.986,-0.0,-0.0,0.02,0.02
8.996,0.0,0.0,0.01,0.01
9.006,-0.0,0.0,0.01,0.01
9.016,0.01,0.0,0.0,0.01
9.026,-0.0,0.01,-0.01,0.01
9.036,0.01,0.01,0.01,0.02
9.046,0.0,0.01,0.01,0.02
9.056,-0.01,0.01,0.01,0.01
9.066,0.0,0.01,0.01,0.02
9.076,0.0,0.0,0.01,0.01
9.086,0.0,0.0,0.02,0.02
9.096,0.01,0.01,0.01,0.02
9.106,0.0,0.0,-0.01,0.01
9.117,0.01,0.01,0.01,0.02
9.127,-0.0,-0.0,0.01,0.01
9.137,0.01,0.0,-0.0,0.01
9.147,0.0,0.0,-0.01,0.01
9.157,0.0,0.0,0.0,0.0
9.167,-0.01,0.01,0.02,0.03
9.177,0.01,0.0,0.02,0.02
9.187,0.01,-0.0,-0.0,0.01
9.197,-0.0,0.0,0.01,0.01
9.207,0.0,0.01,0.01,0.02
9.217,0.0,0.0,0.0,0.01
9.227,0.01,0.01,0.0,0.01
9.238,0.01,0.01,0.01,0.01
9.247,-0.0,0.0,0.01,0.01
9.258,-0.0,0.0,0.01,0.01
9.268,-0.0,0.0,0.02,0.02
9.278,-0.0,0.01,0.02,0.02
9.288,0.0,0.01,0.01,0.02
9.298,-0.01,0.0,0.01,0.01
9.308,0.0,0.0,0.01,0.01
9.318,0.0,0.0,0.01,0.01
9.328,0.01,0.01,0.0,0.01
9.338,0.0,0.0,0.01,0.01
9.348,0.0,0.0,0.0,0.0
9.358,-0.0,0.0,0.0,0.01
9.368,-0.0,-0.0,0.0,0.01
9.378,0.01,-0.0,-0.0,0.01
9.389,0.0,-0.0,0.01,0.01
9.399,0.01,-0.0,0.0,0.01
9.409,-0.0,0.0,0.01,0.01
9.419,-0.0,0.01,0.0,0.01
9.429,-0.01,0.0,0.0,0.01
9.439,-0.0,0.0,0.01,0.01
9.449,0.0,0.0,0.02,0.02
9.459,0.01,0.0,0.01,0.02
9.469,-0.01,0.01,0.0,0.01
9.479,-0.01,0.01,0.0,0.01
9.489,0.0,0.01,0.01,0.01
9.499,0.01,0.0,0.02,0.02
9.51,-0.0,0.0,0.01,0.01
9.52,-0.0,0.01,0.01,0.01
9.53,0.01,-0.0,0.0,0.01
9.54,0.0,-0.0,0.01,0.01
9.55,0.01,0.0,0.01,0.01
9.56,-0.0,0.0,0.0,0.0
9.57,-0.01,-0.0,0.0,0.01
9.58,0.01,0.0,0.0,0.01
9.59,0.0,0.01,0.02,0.02
9.6,-0.0,0.01,0.0,0.01
9.61,-0.0,0.0,0.0,0.0
9.62,-0.01,0.01,0.01,0.01
9.63,-0.0,0.0,0.01,0.01
9.641,-0.0,0.0,0.02,0.02
9.651,-0.0,0.0,0.0,0.01
9.661,-0.01,0.01,0.01,0.01
9.671,-0.0,0.01,0.01,0.01
9.681,0.0,0.01,-0.0,0.01
9.691,0.01,0.0,0.01,0.01
9.701,-0.01,0.0,0.01,0.02
9.711,-0.0,0.01,0.0,0.01
9.721,0.0,0.0,0.01,0.01
9.731,-0.0,0.01,0.03,0.03
9.741,-0.01,0.0,0.03,0.03
9.751,-0.0,-0.0,0.01,0.01
9.761,-0.01,0.01,-0.0,0.01
9.771,-0.0,0.0,0.02,0.02
9.781,0.01,0.0,0.01,0.01
9.792,0.02,0.01,-0.01,0.02
9.802,0.0,-0.0,0.0,0.01
9.812,0.01,0.0,0.0,0.01
9.822,0.01,0.01,-0.0,0.01
9.832,0.0,-0.0,0.01,0.01
9.842,-0.0,0.0,0.01,0.01
9.852,0.0,0.0,0.02,0.02
9.862,-0.0,0.01,0.03,0.03
9.872,0.0,0.0,0.02,0.02
9.882,0.0,0.0,0.01,0.01
9.892,-0.0,0.01,0.01,0.01
9.902,0.01,0.0,-0.0,0.01
9.912,0.0,0.0,0.0,0.01
9.923,-0.01,-0.0,0.02,0.02
9.932,-0.01,0.0,0.01,0.01
9.943,0.0,0.0,-0.0,0.0
9.953,0.01,0.01,0.01,0.02
9.963,-0.0,0.01,0.03,0.03
9.973,-0.0,0.01,0.02,0.02
9.983,0.0,-0.0,0.0,0.01
9.993,0.0,0.0,0.0,0.01
10.003,0.01,0.0,0.01,0.01
10.013,0.01,0.0,0.0,0.01
10.023,0.0,0.0,0.01,0.01
10.033,0.0,-0.0,0.01,0.01
10.043,0.0,0.0,0.01,0.01
10.053,0.01,-0.0,0.0,0.01
10.064,-0.0,-0.0,0.01,0.01
10.074,-0.0,-0.0,0.02,0.02
10.084,0.01,0.0,-0.01,0.01
10.094,0.01,0.0,0.01,0.02
10.104,-0.01,0.0,0.02,0.02
10.114,0.0,0.01,0.02,0.02
10.124,0.0,0.0,0.02,0.02
10.134,0.0,0.0,0.01,0.01
10.144,0.0,0.0,0.01,0.01
10.154,-0.0,-0.01,0.02,0.02
10.164,0.01,-0.01,0.01,0.01
10.174,0.0,0.0,0.0,0.0
10.184,-0.0,0.0,0.01,0.01
10.194,0.0,0.0,0.02,0.02
10.205,0.0,0.0,-0.01,0.01
10.215,0.01,-0.0,-0.0,0.01
10.225,0.01,0.01,0.02,0.02
10.235,0.01,-0.0,0.0,0.01
10.245,-0.01,0.0,0.02,0.02
10.255,-0.0,0.01,0.04,0.04
10.265,0.0,0.0,-0.01,0.01
10.275,0.02,-0.0,-0.0,0.02
10.285,0.0,0.0,0.01,0.01
10.295,0.0,-0.0,0.01,0.01
10.305,0.01,-0.0,-0.0,0.01
10.316,0.0,0.0,0.01,0.01
10.325,0.01,0.01,0.0,0.01
10.336,0.01,0.0,0.01,0.01
10.346,-0.0,0.01,0.04,0.04
10.356,0.01,-0.0,-0.01,0.01
10.366,0.0,0.0,0.02,0.02
10.376,0.0,0.01,0.02,0.02
10.386,0.0,0.01,0.01,0.01
10.396,-0.0,-0.0,-0.01,0.01
10.406,-0.01,0.01,0.04,0.05
10.416,0.01,0.0,-0.03,0.03
10.426,0.0,0.0,0.0,0.0
10.436,0.01,0.0,-0.01,0.01
10.446,0.07,0.0,-0.26,0.27
10.456,-0.06,0.04,0.27,0.28
10.466,0.01,-0.01,0.02,0.03
10.477,0.01,-0.01,-0.0,0.01
10.487,0.01,-0.0,0.04,0.04
10.497,0.0,-0.01,0.03,0.03
10.507,0.0,-0.01,0.01,0.01
10.517,0.0,0.0,0.02,0.02
10.527,-0.01,0.0,-0.02,0.02
10.537,-0.0,0.01,0.03,0.04
10.547,0.0,-0.0,0.01,0.01
10.557,-0.0,0.0,0.02,0.02
10.567,0.0,0.0,0.03,0.03
10.577,-0.0,0.0,0.01,0.01
10.587,0.0,0.01,0.01,0.01
10.597,-0.0,0.0,-0.01,0.01
10.608,-0.01,0.0,0.04,0.04
10.618,0.0,0.0,0.01,0.01
10.628,0.01,-0.0,-0.04,0.04
