time,ax,ay,az,atotal
0.0,0.01,-0.0,-0.0,0.01
0.01,-0.01,-0.0,0.0,0.01
0.02,-0.0,0.01,0.01,0.01
0.03,0.01,-0.01,0.01,0.01
0.04,-0.0,-0.01,-0.0,0.01
0.05,-0.01,0.0,0.02,0.02
0.06,0.0,0.0,0.0,0.01
0.071,-0.0,-0.0,-0.0,0.0
0.081,-0.0,-0.0,0.01,0.01
0.091,-0.0,-0.0,0.0,0.0
0.101,0.0,0.0,0.0,0.01
0.111,-0.0,-0.0,0.0,0.0
0.121,-0.0,0.0,0.01,0.01
0.131,0.0,-0.0,0.01,0.01
0.141,-0.0,-0.01,-0.0,0.01
0.151,-0.0,-0.0,0.0,0.01
0.161,0.0,-0.01,0.02,0.02
0.171,0.0,0.0,0.01,0.01
0.181,-0.0,-0.0,0.01,0.01
0.191,-0.0,-0.0,0.01,0.01
0.202,-0.0,0.0,0.01,0.01
0.211,0.0,-0.0,0.01,0.01
0.222,-0.0,-0.0,0.0,0.01
0.232,-0.01,0.0,0.0,0.01
0.242,0.0,0.0,0.0,0.0
0.252,0.0,-0.01,0.0,0.01
0.262,-0.0,-0.0,0.0,0.0
0.272,-0.0,-0.0,0.01,0.01
0.282,0.0,0.0,0.01,0.01
0.292,0.01,0.01,0.01,0.01
0.302,0.0,-0.0,0.01,0.01
0.312,0.0,0.0,0.01,0.01
0.322,-0.01,-0.0,0.01,0.02
0.332,-0.01,-0.0,0.01,0.01
0.343,-0.0,-0.0,-0.0,0.0
0.353,-0.01,0.0,-0.0,0.01
0.363,-0.0,0.0,-0.0,0.0
0.373,0.0,-0.0,0.01,0.01
0.383,0.0,-0.0,0.01,0.01
0.393,0.0,0.0,0.01,0.01
0.403,-0.0,-0.0,0.02,0.02
0.413,-0.0,-0.0,0.01,0.01
0.423,0.0,0.0,0.01,0.01
0.433,-0.0,-0.01,0.0,0.01
0.443,0.0,0.0,0.0,0.01
0.453,0.01,-0.0,0.01,0.01
0.463,0.0,0.0,-0.0,0.0
0.473,0.0,0.0,0.0,0.01
0.484,0.0,0.0,0.01,0.01
0.494,0.0,-0.0,0.01,0.01
0.504,-0.0,0.0,0.01,0.01
0.514,0.01,-0.0,-0.0,0.01
0.524,-0.0,-0.01,0.01,0.01
0.534,-0.0,0.0,0.01,0.01
0.544,0.0,-0.0,0.0,0.0
0.554,-0.01,-0.0,0.01,0.02
0.564,-0.02,0.0,-0.0,0.02
0.574,-0.0,-0.0,0.0,0.0
0.584,0.01,-0.0,0.0,0.01
0.594,-0.0,0.01,0.0,0.01
0.604,0.0,0.0,0.0,0.01
0.614,-0.0,0.0,0.01,0.01
0.624,-0.0,-0.0,-0.0,0.0
0.635,-0.0,-0.01,-0.0,0.01
0.645,-0.01,-0.0,0.0,0.01
0.655,-0.0,0.0,0.01,0.01
0.665,-0.0,-0.0,0.0,0.0
0.675,-0.0,-0.0,0.0,0.01
0.685,-0.0,0.0,0.01,0.01
0.695,0.0,-0.0,0.01,0.01
0.705,0.0,0.01,0.01,0.01
0.715,-0.01,-0.01,0.01,0.01
0.725,0.0,-0.01,0.0,0.01
0.735,-0.01,0.0,0.01,0.01
0.745,-0.01,0.0,0.01,0.01
0.756,0.0,-0.0,0.0,0.0
0.766,0.0,-0.0,0.01,0.01
0.776,-0.0,0.0,0.01,0.01
0.786,-0.0,0.0,0.0,0.01
0.796,-0.0,-0.0,0.01,0.01
0.806,0.0,0.0,0.0,0.0
0.816,-0.0,-0.01,0.0,0.01
0.826,0.0,-0.0,-0.0,0.01
0.836,0.01,-0.0,0.01,0.02
0.846,-0.0,-0.0,0.01,0.01
0.856,0.01,-0.0,0.01,0.01
0.866,0.0,-0.0,0.0,0.01
0.876,-0.01,-0.0,0.01,0.01
0.886,-0.0,-0.0,0.01,0.01
0.896,0.0,0.0,0.01,0.01
0.907,-0.0,-0.0,-0.0,0.0
0.917,0.0,-0.0,0.01,0.01
0.927,0.0,-0.0,0.0,0.0
0.937,0.0,0.01,-0.0,0.01
0.947,-0.0,-0.0,0.01,0.01
0.957,-0.01,0.01,0.01,0.01
0.967,0.01,0.0,0.01,0.01
0.977,-0.0,-0.0,0.01,0.01
0.987,-0.0,0.0,0.01,0.01
0.997,-0.0,-0.0,-0.0,0.0
1.007,0.0,0.0,0.01,0.01
1.017,0.0,0.0,0.01,0.01
1.028,0.0,0.0,0.0,0.01
1.037,-0.0,-0.01,0.0,0.01
1.048,0.0,0.0,0.01,0.01
1.058,0.0,-0.0,0.01,0.01
1.068,0.0,-0.0,0.01,0.01
1.078,0.01,-0.0,0.0,0.01
1.088,0.0,-0.0,0.0,0.01
1.098,-0.0,-0.0,0.01,0.01
1.108,0.01,0.0,-0.0,0.01
1.118,0.0,-0.0,0.01,0.01
1.128,0.0,0.0,0.02,0.02
1.138,0.0,0.0,-0.01,0.01
1.148,0.01,-0.0,0.0,0.01
1.158,0.01,0.0,0.0,0.01
1.169,0.0,0.0,0.01,0.01
1.178,0.0,-0.0,0.01,0.01
1.189,0.01,0.0,-0.0,0.01
1.199,0.01,0.01,0.01,0.01
1.209,0.0,0.0,0.01,0.01
1.219,0.0,-0.0,0.0,0.01
1.229,-0.0,0.01,0.01,0.01
1.239,0.0,0.0,0.01,0.01
1.249,0.0,0.0,0.01,0.01
1.259,0.0,-0.0,0.01,0.01
1.269,0.0,0.0,0.01,0.01
1.279,0.01,0.0,0.0,0.01
1.289,-0.0,0.0,0.01,0.01
1.299,0.01,0.0,0.01,0.01
1.309,0.0,-0.0,0.0,0.0
1.32,0.01,0.0,0.01,0.01
1.33,0.0,0.01,-0.01,0.01
1.34,0.0,0.01,0.01,0.01
1.35,0.01,-0.0,-0.01,0.01
1.36,-0.01,0.0,0.01,0.01
1.37,-0.0,0.0,0.0,0.0
1.38,-0.0,-0.0,0.02,0.02
1.39,0.0,0.01,0.01,0.01
1.4,0.01,0.0,0.01,0.01
1.41,-0.0,0.0,0.01,0.01
1.42,-0.0,0.01,-0.0,0.01
1.43,0.01,0.0,0.0,0.01
1.44,0.0,0.0,0.0,0.01
1.451,0.0,0.0,-0.0,0.01
1.461,-0.0,0.01,0.0,0.01
1.471,-0.01,0.0,0.0,0.01
1.481,0.01,-0.0,0.01,0.02
1.491,0.01,0.01,0.0,0.01
1.501,0.0,0.0,0.01,0.01
1.511,0.01,-0.01,0.0,0.01
1.521,0.0,-0.01,0.0,0.01
1.531,0.01,0.01,0.01,0.01
1.541,-0.0,0.01,-0.0,0.01
1.551,-0.01,0.0,0.01,0.01
1.561,0.0,-0.0,0.01,0.01
1.571,-0.0,0.0,0.0,0.0
1.581,0.0,0.0,-0.01,0.01
1.592,0.0,-0.0,0.0,0.0
1.602,0.0,0.01,0.0,0.01
1.612,-0.0,0.0,0.0,0.01
1.622,-0.0,-0.0,0.01,0.01
1.632,0.0,0.01,0.01,0.01
1.642,-0.0,0.01,0.01,0.01
1.652,-0.0,-0.0,0.0,0.0
1.662,0.0,0.0,0.01,0.01
1.672,0.0,0.0,0.01,0.01
1.682,0.0,-0.0,0.01,0.01
1.692,0.0,0.0,0.01,0.01
1.702,0.0,0.0,0.01,0.01
1.712,-0.0,0.01,-0.0,0.01
1.723,-0.0,0.01,0.01,0.01
1.733,0.0,-0.0,-0.0,0.01
1.743,0.01,-0.0,0.0,0.01
1.753,-0.0,-0.0,0.0,0.0
1.763,-0.01,0.0,0.01,0.01
1.773,-0.0,0.0,0.01,0.01
1.783,-0.0,-0.01,0.01,0.01
1.793,0.0,-0.0,0.01,0.01
1.803,0.0,0.01,0.01,0.01
1.813,-0.0,0.0,-0.0,0.0
1.823,0.0,0.0,0.01,0.01
1.833,-0.0,-0.01,0.01,0.01
1.843,0.0,-0.0,0.01,0.01
1.853,0.0,-0.0,0.0,0.0
1.863,-0.01,-0.0,-0.0,0.01
1.874,0.01,0.01,0.01,0.01
1.884,0.0,0.01,0.01,0.01
1.894,0.0,-0.01,0.01,0.01
1.904,0.01,-0.01,0.0,0.01
1.914,0.01,0.0,0.01,0.01
1.924,0.0,0.01,0.0,0.01
1.934,-0.0,-0.0,0.01,0.01
1.944,-0.0,0.0,-0.0,0.0
1.954,0.01,-0.0,0.01,0.01
1.964,0.0,0.0,0.01,0.01
1.975,0.0,-0.0,0.0,0.0
1.985,0.01,0.0,0.0,0.01
1.994,0.0,0.0,0.0,0.01
2.005,0.0,0.0,0.01,0.01
2.015,0.01,-0.0,0.01,0.01
2.025,0.01,-0.0,0.01,0.01
2.035,0.01,0.0,0.01,0.01
2.045,-0.0,0.01,0.01,0.01
2.055,0.01,-0.0,0.01,0.01
2.065,0.0,0.01,0.0,0.01
2.075,0.0,0.0,0.01,0.01
2.085,-0.0,0.0,-0.0,0.01
2.095,0.01,0.01,0.01,0.01
2.105,0.0,0.0,0.01,0.01
2.115,-0.0,-0.0,0.01,0.02
2.125,-0.01,0.0,0.01,0.01
2.135,-0.0,0.01,0.0,0.01
2.146,-0.01,-0.0,-0.01,0.01
2.156,-0.0,0.0,-0.0,0.0
2.166,-0.01,0.0,0.0,0.01
2.176,-0.0,0.0,0.02,0.02
2.186,0.01,-0.0,0.01,0.01
2.196,0.0,0.0,0.01,0.01
2.206,0.0,-0.01,0.0,0.01
2.216,0.01,-0.01,0.0,0.01
2.226,0.0,-0.0,0.0,0.0
2.236,0.0,0.0,0.01,0.01
2.246,0.0,0.0,0.01,0.01
2.256,0.0,0.0,0.01,0.01
2.267,0.01,-0.01,0.01,0.02
2.276,0.0,0.01,0.0,0.01
2.287,-0.0,0.01,0.01,0.01
2.297,0.0,-0.0,0.0,0.0
2.307,-0.0,0.0,0.01,0.01
2.317,-0.0,-0.01,0.01,0.01
2.327,0.01,0.0,0.0,0.01
2.337,0.0,-0.0,0.0,0.0
2.347,0.0,0.01,0.01,0.01
2.357,-0.0,0.0,0.01,0.01
2.367,0.01,0.0,0.02,0.02
2.377,0.0,-0.0,0.0,0.0
2.387,-0.0,-0.0,0.02,0.02
2.397,0.0,0.0,0.0,0.01
2.407,0.01,-0.0,0.01,0.02
2.418,-0.01,-0.01,0.0,0.01
2.428,-0.0,-0.0,-0.0,0.0
2.438,-0.0,-0.0,-0.0,0.0
2.448,0.0,-0.0,0.01,0.01
2.458,0.01,-0.0,0.0,0.01
2.468,0.01,-0.0,0.0,0.01
2.478,0.01,0.0,0.01,0.01
2.488,0.0,0.01,0.01,0.01
2.498,0.0,-0.0,0.0,0.01
2.508,0.0,0.0,0.01,0.01
2.518,0.0,0.0,0.0,0.0
2.528,-0.0,-0.0,0.0,0.0
2.538,-0.01,0.0,0.01,0.01
2.548,0.0,0.01,0.01,0.01
2.559,0.01,-0.0,-0.0,0.01
2.569,0.01,0.0,0.01,0.01
2.579,0.01,0.0,0.01,0.01
2.589,0.0,0.0,0.0,0.01
2.599,0.0,0.0,-0.0,0.0
2.609,0.0,0.01,0.01,0.01
2.619,-0.0,0.0,0.01,0.01
2.629,-0.0,0.0,0.0,0.01
2.639,-0.01,0.0,0.0,0.01
2.649,-0.01,0.01,0.0,0.01
2.659,-0.0,-0.0,0.01,0.01
2.67,-0.0,0.0,-0.0,0.0
2.679,0.01,0.01,0.01,0.01
2.69,0.01,0.0,0.0,0.01
2.7,0.01,0.01,0.01,0.02
2.71,0.01,0.0,0.01,0.01
2.72,0.01,-0.0,0.0,0.01
2.73,-0.0,0.0,0.0,0.0
2.74,0.0,0.0,0.0,0.0
2.75,-0.0,0.0,0.01,0.01
2.76,0.01,0.0,0.01,0.02
2.77,0.0,0.0,0.0,0.0
2.78,-0.01,0.0,0.0,0.01
2.79,0.01,-0.0,0.0,0.01
2.8,0.0,-0.0,0.0,0.01
2.81,0.0,0.0,0.01,0.01
2.82,0.0,0.0,0.02,0.02
2.83,0.0,-0.0,0.0,0.0
2.841,0.0,0.0,0.0,0.01
2.851,0.01,0.0,-0.0,0.01
2.861,0.01,0.01,0.0,0.01
2.871,0.0,0.01,0.0,0.01
2.881,0.0,0.0,0.01,0.01
2.891,0.01,-0.0,0.01,0.01
2.901,0.0,-0.0,0.01,0.01
2.911,-0.0,0.0,0.0,0.0
2.921,0.0,0.0,0.01,0.01
2.931,0.01,0.0,0.01,0.01
2.941,-0.0,0.01,0.01,0.01
2.952,0.0,0.0,-0.0,0.0
2.961,-0.0,0.0,0.01,0.01
2.972,0.0,-0.0,0.01,0.01
2.982,0.01,-0.0,0.0,0.01
2.992,0.01,0.0,0.02,0.02
3.002,0.01,0.0,0.01,0.02
3.012,0.0,0.0,-0.0,0.0
3.022,0.0,0.01,0.01,0.01
3.032,0.0,0.01,0.01,0.01
3.042,0.0,0.0,0.01,0.01
3.052,-0.0,0.01,-0.0,0.01
3.062,-0.0,-0.0,-0.0,0.0
3.073,0.01,0.0,0.0,0.01
3.083,0.0,0.0,0.0,0.01
3.092,0.0,0.0,0.01,0.01
3.103,0.01,0.01,0.01,0.01
3.113,-0.0,-0.0,-0.0,0.01
3.123,0.0,0.0,0.01,0.01
3.133,0.01,0.01,0.02,0.02
3.143,0.0,0.0,0.01,0.01
3.153,0.01,0.0,0.01,0.01
3.163,0.01,0.0,0.0,0.01
3.173,0.02,0.01,0.01,0.02
3.183,0.01,0.0,-0.0,0.01
3.193,0.0,0.0,0.01,0.01
3.203,-0.0,0.0,0.01,0.01
3.213,0.0,0.01,0.01,0.01
3.223,0.01,0.01,0.01,0.02
3.233,0.01,0.01,0.0,0.01
3.244,0.0,0.01,-0.0,0.01
3.254,0.0,-0.0,0.01,0.01
3.264,0.0,0.01,0.0,0.01
3.274,0.01,0.01,0.0,0.01
3.284,0.0,0.0,0.0,0.01
3.294,0.0,0.01,0.0,0.01
3.304,0.01,0.0,-0.0,0.01
3.314,0.01,-0.0,-0.01,0.01
3.324,0.01,0.01,-0.0,0.01
3.334,0.01,0.0,0.01,0.01
3.344,0.0,0.01,0.01,0.01
3.354,0.0,0.01,0.01,0.01
3.364,0.0,0.0,-0.01,0.01
3.375,0.01,-0.0,-0.01,0.01
3.385,-0.0,0.01,0.0,0.01
3.395,0.0,0.0,-0.0,0.0
3.405,0.01,0.0,0.01,0.01
3.415,0.01,0.01,0.01,0.01
3.425,0.0,0.01,0.0,0.01
3.435,0.0,0.01,-0.0,0.01
3.445,-0.0,0.0,0.0,0.0
3.455,0.0,0.01,0.01,0.01
3.465,0.01,0.0,0.0,0.01
3.475,0.0,0.0,0.0,0.01
3.485,0.01,0.01,0.02,0.02
3.495,0.0,0.01,0.01,0.01
3.506,-0.0,-0.0,0.01,0.01
3.515,-0.0,0.01,0.0,0.01
3.526,0.02,0.0,0.0,0.02
3.536,0.0,0.01,-0.0,0.01
3.546,0.01,0.01,0.01,0.01
3.556,0.01,0.0,0.01,0.01
3.566,0.01,0.0,0.01,0.01
3.576,0.0,-0.0,0.0,0.01
3.586,-0.01,-0.0,0.01,0.01
3.596,-0.0,0.01,0.01,0.01
3.606,-0.01,0.0,0.01,0.01
3.616,0.01,0.0,0.01,0.01
3.626,0.01,0.0,0.0,0.01
3.636,0.0,0.0,-0.0,0.0
3.646,0.0,0.01,0.01,0.01
3.657,0.01,0.01,0.01,0.02
3.667,0.0,0.0,0.01,0.01
3.677,-0.0,0.0,0.01,0.01
3.687,0.0,0.01,0.01,0.01
3.697,0.01,-0.0,0.0,0.01
3.707,0.0,-0.0,-0.0,0.01
3.717,0.0,0.0,0.01,0.01
3.727,0.01,0.0,0.01,0.01
3.737,0.0,0.0,0.01,0.01
3.747,0.0,0.0,0.01,0.01
3.757,0.01,0.0,-0.0,0.01
3.767,0.0,-0.01,0.02,0.02
3.778,0.0,0.0,0.02,0.02
3.788,-0.01,0.0,0.0,0.01
3.798,-0.0,0.0,0.02,0.02
3.808,0.0,0.0,0.01,0.01
3.818,0.01,-0.0,0.01,0.01
3.828,-0.0,0.0,0.01,0.01
3.838,0.0,0.01,0.0,0.01
3.848,0.01,0.0,0.01,0.02
3.858,0.01,0.0,0.02,0.02
3.868,0.0,0.01,0.01,0.01
3.878,0.0,0.01,0.02,0.02
3.889,0.0,0.0,0.01,0.01
3.898,0.0,0.01,0.01,0.01
3.909,0.0,0.0,0.01,0.01
3.919,-0.0,0.0,-0.0,0.0
3.928,0.0,-0.0,0.01,0.01
3.939,0.01,0.01,0.01,0.01
3.949,0.01,0.01,0.0,0.01
3.959,0.0,0.01,0.0,0.01
3.969,0.01,0.0,0.0,0.01
3.979,0.01,-0.0,0.01,0.02
3.989,0.01,0.0,0.0,0.01
3.999,0.01,0.0,0.0,0.01
4.009,-0.0,0.01,0.01,0.01
4.019,0.0,0.0,0.01,0.01
4.029,0.0,0.01,0.0,0.01
4.039,0.01,0.0,0.01,0.02
4.05,0.01,0.01,0.01,0.01
4.059,0.01,0.01,0.01,0.01
4.07,0.0,-0.01,0.0,0.01
4.08,-0.0,0.0,0.01,0.01
4.09,0.0,0.0,0.01,0.01
4.1,0.01,0.01,0.0,0.02
4.11,-0.0,0.01,0.0,0.01
4.12,-0.0,0.01,-0.0,0.01
4.13,0.01,0.0,0.01,0.01
4.14,0.0,0.0,0.02,0.02
4.15,0.0,0.01,0.0,0.01
4.16,0.0,0.01,0.01,0.01
4.17,-0.0,-0.0,-0.0,0.0
4.181,0.0,-0.0,0.01,0.01
4.19,0.01,0.0,0.01,0.01
4.201,0.01,0.01,0.01,0.01
4.211,0.01,0.0,0.0,0.01
4.221,0.01,0.01,0.02,0.02
4.231,0.01,-0.0,0.01,0.02
4.241,0.01,0.0,0.0,0.01
4.251,0.01,0.01,0.01,0.01
4.261,0.0,-0.0,0.0,0.01
4.271,0.0,-0.0,0.0,0.0
4.281,0.0,0.01,0.0,0.01
4.291,0.0,0.01,0.01,0.02
4.301,0.0,0.0,0.01,0.01
4.311,0.0,0.0,0.0,0.01
4.321,0.01,0.0,0.0,0.01
4.332,0.0,-0.0,0.01,0.01
4.342,-0.0,0.0,-0.0,0.01
4.352,0.01,0.0,0.01,0.01
4.362,0.01,0.01,0.01,0.02
4.372,-0.0,0.01,0.0,0.01
4.382,0.0,0.0,0.01,0.01
4.392,0.0,0.0,0.01,0.01
4.402,-0.0,0.0,0.01,0.01
4.412,0.01,0.01,-0.0,0.01
4.422,0.0,0.0,0.01,0.01
4.432,-0.0,0.0,0.0,0.01
4.442,0.01,-0.0,0.01,0.01
4.452,0.0,-0.0,-0.0,0.0
4.463,0.01,-0.0,0.0,0.01
4.473,0.01,-0.0,0.02,0.02
4.483,0.0,0.0,0.01,0.01
4.493,0.01,-0.01,0.0,0.01
4.503,0.0,-0.0,-0.01,0.01
4.513,-0.0,-0.0,0.01,0.01
4.523,-0.0,-0.0,0.01,0.01
4.533,-0.0,-0.0,0.0,0.01
4.543,0.0,-0.0,0.0,0.01
4.553,-0.0,-0.0,0.01,0.01
4.563,0.01,0.0,0.01,0.01
4.573,-0.0,0.0,0.0,0.0
4.583,-0.01,0.01,0.01,0.01
4.594,-0.0,-0.0,0.0,0.0
4.603,-0.01,-0.0,0.0,0.01
4.614,0.0,-0.0,0.0,0.01
4.624,-0.0,0.01,0.01,0.01
4.634,-0.0,-0.0,0.01,0.01
4.644,0.01,0.0,0.01,0.01
4.654,0.01,0.0,0.0,0.01
4.664,-0.0,0.0,0.01,0.01
4.674,0.0,0.01,0.01,0.01
4.684,0.0,0.01,0.01,0.01
4.694,0.0,-0.0,0.01,0.01
4.704,0.01,0.0,0.0,0.01
4.714,0.01,0.0,0.02,0.02
4.724,0.01,0.0,0.0,0.01
4.735,0.01,-0.0,-0.0,0.01
4.745,0.0,0.0,0.01,0.01
4.755,0.0,0.01,0.01,0.01
4.765,0.01,0.0,-0.01,0.01
4.775,0.01,0.0,0.01,0.01
4.785,0.01,0.0,0.0,0.01
4.795,0.01,0.0,0.01,0.02
4.805,0.01,-0.0,0.0,0.01
4.815,0.0,-0.0,0.0,0.0
4.825,0.0,-0.01,0.01,0.01
4.835,0.0,0.0,0.0,0.01
4.845,-0.0,0.01,0.01,0.01
4.855,0.01,0.01,0.01,0.01
4.865,0.01,-0.0,0.0,0.01
4.875,0.01,-0.0,0.01,0.01
4.886,-0.0,-0.0,0.0,0.0
4.896,-0.0,0.0,-0.0,0.01
4.906,-0.0,0.0,0.01,0.01
4.916,0.0,0.0,0.01,0.01
4.926,0.0,-0.0,0.0,0.01
4.936,0.0,-0.01,0.0,0.01
4.946,-0.0,-0.0,0.0,0.0
4.956,0.0,0.0,-0.0,0.0
4.966,0.0,-0.0,0.01,0.01
4.976,0.01,0.0,0.01,0.01
4.986,-0.0,-0.0,0.01,0.01
4.996,0.01,-0.0,0.01,0.01
5.006,0.0,-0.0,0.0,0.01
5.017,0.0,0.0,0.0,0.01
5.027,0.01,-0.0,0.01,0.01
5.037,0.0,0.0,0.01,0.01
5.047,-0.0,-0.0,0.01,0.01
5.057,0.01,-0.0,0.01,0.01
5.067,0.0,-0.0,0.01,0.01
5.077,0.02,-0.0,0.01,0.02
5.087,0.01,0.0,0.01,0.02
5.097,0.01,-0.01,0.0,0.01
5.107,0.0,-0.0,0.0,0.01
5.117,0.0,0.0,0.01,0.01
5.127,0.0,-0.0,0.01,0.01
5.137,0.0,-0.0,0.01,0.01
5.148,0.01,0.0,0.01,0.01
5.158,0.0,0.0,0.0,0.0
5.168,0.01,0.0,0.01,0.01
5.178,0.0,0.0,0.0,0.0
5.188,0.0,0.0,0.01,0.01
5.198,0.0,0.0,0.0,0.01
5.208,0.0,0.0,0.01,0.01
5.218,0.0,0.0,0.01,0.01
5.228,0.01,0.0,0.01,0.01
5.238,0.01,0.0,0.01,0.01
5.248,0.0,0.0,0.01,0.01
5.258,0.01,-0.01,0.0,0.01
5.268,0.01,0.01,0.0,0.01
5.278,-0.0,-0.0,0.0,0.0
5.288,0.01,-0.01,-0.0,0.01
5.299,0.0,-0.01,0.01,0.01
5.309,0.0,0.0,0.01,0.01
5.319,0.0,0.01,0.01,0.01
5.329,-0.0,0.0,0.02,0.02
5.339,0.01,0.0,0.01,0.01
5.349,0.01,-0.0,0.01,0.02
5.359,0.0,0.0,0.0,0.0
5.369,0.01,0.0,0.0,0.01
5.379,0.01,0.0,0.01,0.01
5.389,0.01,-0.0,-0.0,0.01
5.399,0.0,0.0,0.01,0.01
5.409,0.0,0.0,0.01,0.01
5.419,0.01,-0.01,0.01,0.01
5.429,0.01,-0.0,0.01,0.01
5.44,0.01,0.0,0.0,0.01
5.45,0.0,0.01,0.01,0.01
5.46,0.0,0.0,0.01,0.01
5.47,0.0,-0.0,0.01,0.01
5.48,0.01,-0.0,0.01,0.01
5.49,-0.0,0.0,0.01,0.01
5.5,0.01,0.01,0.0,0.01
5.51,0.01,-0.0,0.0,0.01
5.52,-0.0,-0.0,0.0,0.0
5.53,-0.0,-0.01,0.01,0.01
5.54,0.0,-0.0,0.0,0.01
5.55,0.0,-0.0,0.0,0.01
5.561,-0.0,0.0,0.02,0.02
5.571,0.01,0.01,0.01,0.01
5.581,0.0,0.01,0.0,0.01
5.591,0.0,0.01,0.01,0.01
5.601,0.01,0.0,-0.01,0.01
5.611,0.01,0.0,0.0,0.01
5.621,0.0,0.0,0.01,0.01
5.631,0.01,0.0,0.01,0.01
5.641,0.0,0.0,-0.0,0.01
5.651,0.01,0.0,0.0,0.02
5.661,0.0,0.0,0.01,0.01
5.671,-0.0,0.0,0.01,0.01
5.681,0.0,0.0,0.01,0.01
5.691,0.01,-0.0,-0.01,0.01
5.702,-0.0,-0.0,0.01,0.01
5.711,0.0,0.0,0.0,0.0
5.722,0.01,-0.01,0.0,0.01
5.732,0.0,0.0,0.0,0.01
5.742,0.01,-0.0,0.0,0.01
5.752,0.0,-0.0,0.0,0.0
5.762,-0.01,-0.0,-0.0,0.01
5.772,-0.0,-0.0,-0.0,0.0
5.782,0.0,0.01,-0.0,0.01
5.792,0.0,0.01,0.01,0.01
5.802,0.01,0.01,0.01,0.02
5.812,0.0,0.0,-0.0,0.01
5.822,-0.0,0.01,0.01,0.01
5.833,-0.0,-0.0,0.02,0.02
5.843,0.0,0.0,0.01,0.01
5.853,0.01,0.01,0.01,0.02
5.863,0.0,-0.0,0.0,0.01
5.873,0.0,-0.0,0.0,0.01
5.883,0.01,0.01,0.01,0.02
5.893,0.01,0.01,0.01,0.01
5.903,0.01,0.0,0.01,0.01
5.913,0.01,-0.0,0.01,0.01
5.923,0.0,0.01,0.0,0.01
5.933,0.0,0.01,0.0,0.01
5.943,0.0,0.0,-0.0,0.0
5.953,0.01,-0.0,0.01,0.01
5.964,0.01,-0.0,0.01,0.01
5.973,0.01,0.0,0.0,0.01
5.984,0.01,0.0,-0.0,0.01
5.994,0.0,-0.0,0.0,0.0
6.004,-0.0,-0.0,0.0,0.01
6.014,0.0,-0.0,0.0,0.01
6.024,0.0,-0.0,0.01,0.01
6.034,0.0,0.0,0.0,0.01
6.044,0.01,0.0,0.02,0.02
6.054,-0.0,-0.0,0.01,0.01
6.064,0.01,0.01,0.0,0.01
6.074,0.0,0.0,-0.0,0.0
6.084,0.0,0.0,-0.0,0.01
6.094,0.0,0.0,0.0,0.01
6.105,0.01,-0.0,0.0,0.01
6.115,0.0,0.0,0.0,0.0
6.125,0.01,0.0,0.01,0.01
6.135,0.0,0.01,0.0,0.01
6.145,-0.0,-0.0,0.01,0.01
6.155,-0.0,-0.0,0.01,0.01
6.165,-0.0,-0.0,-0.0,0.0
6.175,0.01,-0.0,0.0,0.01
6.185,0.01,0.0,0.01,0.02
6.195,0.0,-0.0,0.01,0.01
6.205,-0.0,-0.0,-0.0,0.0
6.215,-0.01,0.0,0.01,0.01
6.225,0.01,0.01,0.01,0.02
6.235,0.01,0.0,0.0,0.01
6.245,0.01,0.0,0.0,0.01
6.256,-0.0,-0.01,0.01,0.01
6.266,0.0,0.0,-0.0,0.01
6.276,0.0,0.0,0.01,0.01
6.286,-0.0,0.0,0.01,0.01
6.296,0.01,0.01,0.0,0.01
6.306,0.0,0.0,0.0,0.01
6.316,-0.0,0.0,0.0,0.0
6.326,-0.0,0.0,-0.0,0.0
6.336,0.0,0.0,0.0,0.0
6.346,0.0,0.01,0.02,0.02
6.356,0.0,0.0,-0.0,0.0
6.366,-0.0,-0.0,0.01,0.01
6.376,0.0,-0.0,0.01,0.01
6.387,0.01,-0.0,0.01,0.01
6.397,0.0,0.0,0.0,0.0
6.407,0.01,0.0,0.01,0.01
6.417,0.0,0.0,0.0,0.0
6.427,0.01,0.0,0.01,0.01
6.437,-0.0,0.0,0.01,0.01
6.447,-0.0,-0.0,0.02,0.02
6.457,0.0,0.0,0.01,0.01
6.467,0.01,0.0,-0.0,0.01
6.477,0.01,0.01,0.0,0.01
6.487,0.0,-0.0,0.01,0.01
6.497,-0.0,0.0,-0.0,0.01
6.507,0.01,-0.0,0.0,0.01
6.517,0.01,0.01,-0.0,0.01
6.527,0.0,0.01,0.0,0.01
6.538,-0.0,0.01,0.01,0.01
6.548,0.0,0.0,0.01,0.01
6.558,0.01,0.0,0.01,0.02
6.568,0.01,0.0,0.02,0.02
6.578,0.0,0.0,0.01,0.01
6.588,0.01,0.0,0.01,0.01
6.598,0.0,0.0,0.01,0.01
6.608,-0.0,0.0,0.01,0.01
6.618,0.01,-0.0,0.01,0.01
6.628,-0.0,0.0,0.0,0.01
6.638,0.0,0.0,0.01,0.01
6.648,0.0,-0.0,0.01,0.01
6.658,-0.0,-0.01,0.0,0.01
6.669,0.0,-0.0,-0.01,0.01
6.679,-0.0,0.0,-0.01,0.01
6.689,-0.0,-0.0,-0.0,0.0
6.699,0.0,0.0,0.01,0.01
6.709,-0.01,0.01,0.0,0.01
6.719,-0.01,0.0,0.0,0.01
6.729,0.0,-0.0,0.01,0.01
6.739,0.0,-0.0,0.0,0.0
6.749,0.0,0.0,0.01,0.01
6.759,-0.0,0.0,0.01,0.01
6.769,0.01,0.0,0.01,0.01
6.779,0.0,-0.0,0.01,0.01
6.789,0.01,-0.0,0.0,0.01
6.8,0.01,0.0,0.0,0.01
6.809,0.0,-0.0,0.01,0.01
6.82,0.0,0.01,0.01,0.01
6.83,0.01,0.0,-0.0,0.01
6.84,0.01,-0.0,0.01,0.01
6.85,0.01,-0.01,-0.0,0.01
6.86,0.01,-0.0,-0.0,0.01
6.87,-0.0,0.0,0.01,0.01
6.88,0.0,0.0,0.01,0.01
6.89,0.0,0.01,0.02,0.02
6.9,-0.01,-0.0,0.01,0.01
6.91,0.01,-0.01,0.0,0.01
6.92,-0.0,-0.0,0.01,0.01
6.931,0.0,-0.01,-0.0,0.01
6.94,-0.01,-0.0,0.0,0.01
6.951,0.0,0.01,0.0,0.01
6.961,-0.0,0.0,0.0,0.0
6.971,0.0,0.01,0.01,0.01
6.981,0.01,0.0,0.0,0.01
6.991,0.01,-0.0,0.01,0.01
7.001,0.0,0.0,0.01,0.01
7.011,0.01,-0.0,0.01,0.01
7.021,0.01,0.0,0.01,0.01
7.031,0.0,0.01,0.01,0.01
7.041,-0.01,-0.01,0.0,0.01
7.051,0.01,0.0,0.01,0.01
7.061,0.0,0.0,0.0,0.01
7.072,0.01,-0.0,0.02,0.02
7.082,0.01,0.01,0.01,0.01
7.092,0.0,0.01,0.01,0.01
7.102,0.01,0.0,0.0,0.01
7.112,-0.0,0.0,0.0,0.0
7.122,0.0,0.01,0.0,0.01
7.132,0.0,-0.0,-0.0,0.01
7.142,0.01,-0.0,0.01,0.02
7.152,0.0,0.0,0.01,0.01
7.162,-0.01,-0.01,0.0,0.01
7.172,0.0,-0.0,0.01,0.01
7.182,0.0,-0.0,0.01,0.01
7.192,0.01,0.0,0.0,0.01
7.202,0.0,0.0,0.01,0.01
7.213,0.0,0.0,0.0,0.01
7.223,0.01,0.0,0.01,0.02
7.233,0.01,-0.0,-0.01,0.01
7.243,0.01,0.0,0.0,0.01
7.253,-0.0,0.01,0.01,0.01
7.263,0.01,0.0,0.01,0.02
7.273,-0.0,0.0,0.01,0.01
7.283,0.01,-0.0,0.0,0.01
7.293,0.01,0.0,-0.0,0.01
7.303,0.0,0.0,0.0,0.0
7.313,0.0,-0.0,0.0,0.0
7.323,0.01,-0.01,0.01,0.01
7.333,-0.0,-0.01,0.01,0.01
7.344,-0.0,-0.01,-0.0,0.01
7.354,0.0,-0.0,0.0,0.01
7.364,0.0,0.0,0.0,0.01
7.374,0.0,0.0,0.0,0.01
7.384,0.0,0.0,-0.0,0.0
7.394,0.01,-0.0,-0.01,0.01
7.404,0.0,-0.0,0.01,0.01
7.414,-0.0,-0.0,0.01,0.01
7.424,0.01,0.0,0.01,0.01
7.434,-0.0,0.0,0.02,0.02
7.444,0.01,-0.01,0.0,0.01
7.454,0.01,0.0,0.0,0.01
7.464,0.01,0.0,0.0,0.01
7.474,0.01,0.0,0.0,0.01
7.485,-0.01,0.0,0.02,0.02
7.494,0.01,-0.0,-0.0,0.01
7.505,0.01,-0.0,0.01,0.01
7.515,0.01,-0.0,0.0,0.01
7.525,0.0,0.01,-0.0,0.01
7.535,0.0,0.0,0.01,0.01
7.545,-0.0,-0.0,0.0,0.0
7.555,-0.01,0.01,-0.0,0.01
7.565,0.01,-0.0,0.01,0.01
7.575,0.01,-0.01,0.01,0.01
7.585,0.0,-0.0,0.01,0.01
7.595,0.01,-0.0,-0.0,0.01
7.605,0.01,-0.0,0.01,0.01
7.615,-0.0,-0.01,0.01,0.01
7.625,0.0,-0.0,0.0,0.01
7.636,0.01,-0.01,0.01,0.01
7.646,-0.0,-0.0,0.0,0.0
7.656,0.0,-0.01,0.0,0.01
7.666,-0.0,-0.0,0.01,0.01
7.676,-0.0,0.0,0.01,0.01
7.686,0.0,-0.01,0.01,0.01
7.696,0.01,-0.0,-0.0,0.01
7.706,0.0,-0.01,0.0,0.01
7.716,0.0,0.0,0.01,0.01
7.726,0.01,0.0,0.01,0.01
7.737,0.0,-0.0,-0.01,0.01
7.746,0.01,0.0,0.0,0.01
7.756,0.0,0.0,0.01,0.01
7.767,0.01,-0.0,0.01,0.01
7.777,-0.0,0.0,0.02,0.02
7.787,0.0,-0.0,0.01,0.01
7.797,0.01,-0.0,-0.0,0.01
7.807,-0.0,-0.01,0.01,0.01
7.817,0.0,-0.0,0.0,0.0
7.827,0.01,-0.0,0.01,0.01
7.837,0.0,-0.0,0.01,0.01
7.847,-0.0,0.0,-0.0,0.0
7.857,0.01,-0.01,0.0,0.01
7.867,0.01,-0.01,0.0,0.01
7.877,0.01,0.0,-0.0,0.01
7.888,0.0,-0.0,-0.0,0.0
7.898,0.0,-0.0,0.0,0.0
7.908,-0.0,-0.0,0.0,0.01
7.918,0.01,-0.0,0.0,0.01
7.928,-0.0,0.0,0.0,0.01
7.938,0.01,0.0,-0.0,0.01
7.948,0.01,-0.01,0.01,0.02
7.958,0.0,-0.0,0.0,0.01
7.968,0.02,-0.0,0.0,0.02
7.978,-0.01,-0.0,-0.0,0.01
7.988,-0.0,-0.0,-0.0,0.01
7.998,0.0,0.0,0.02,0.02
8.008,0.0,0.0,0.0,0.0
8.018,0.0,0.0,0.0,0.01
8.028,0.01,0.0,0.0,0.01
8.039,0.01,-0.0,0.01,0.01
8.049,-0.0,-0.01,0.02,0.02
8.059,0.01,-0.0,0.0,0.01
8.069,0.0,0.0,0.0,0.01
8.079,0.01,-0.0,0.01,0.01
8.089,0.01,-0.0,-0.0,0.01
8.099,-0.0,-0.01,-0.0,0.01
8.109,0.01,-0.0,-0.0,0.01
8.119,0.01,-0.0,0.0,0.01
8.129,-0.0,0.0,0.01,0.01
8.139,0.0,0.0,0.01,0.01
8.149,0.01,-0.01,-0.0,0.01
8.159,0.01,-0.0,0.01,0.01
8.17,0.01,0.0,0.01,0.01
8.179,0.01,-0.01,0.01,0.01
8.19,0.01,-0.01,0.0,0.01
8.2,0.01,-0.0,0.0,0.01
8.21,0.02,-0.0,0.01,0.02
8.22,0.01,-0.0,-0.0,0.01
8.23,-0.0,-0.0,-0.0,0.0
8.24,0.0,0.0,0.01,0.01
8.25,0.01,0.0,-0.0,0.01
8.26,0.01,0.0,-0.0,0.01
8.27,0.01,0.01,0.0,0.02
8.28,0.01,0.01,-0.0,0.01
8.29,0.01,0.0,0.01,0.01
8.3,0.0,-0.01,0.0,0.01
8.31,0.01,-0.01,-0.0,0.01
8.321,-0.0,-0.0,0.01,0.01
8.331,0.01,-0.0,0.02,0.02
8.341,0.01,-0.0,0.0,0.01
8.351,0.01,-0.0,-0.0,0.01
8.361,0.01,-0.0,-0.0,0.01
8.371,0.01,0.0,0.01,0.01
8.381,0.01,-0.0,0.01,0.01
8.391,0.0,0.01,0.0,0.01
8.401,0.0,0.0,-0.0,0.0
8.411,0.01,0.01,-0.0,0.01
8.421,0.01,0.01,-0.0,0.01
8.432,0.01,0.0,0.0,0.01
8.442,-0.0,0.0,0.01,0.01
8.451,0.01,-0.0,0.01,0.01
8.462,0.01,-0.0,0.01,0.01
8.472,0.01,0.0,-0.01,0.02
8.482,0.0,-0.01,0.0,0.01
8.492,-0.0,-0.0,0.0,0.01
8.502,0.01,-0.01,0.01,0.02
8.512,0.01,-0.0,0.0,0.01
8.522,0.0,-0.0,0.0,0.01
8.532,0.01,-0.01,0.01,0.01
8.542,0.0,-0.01,0.0,0.01
8.552,0.0,0.0,0.0,0.0
8.562,0.01,-0.0,-0.01,0.01
8.572,-0.0,0.0,-0.0,0.0
8.583,-0.0,-0.01,0.0,0.01
8.593,0.0,-0.0,-0.0,0.01
8.603,0.01,-0.01,0.02,0.02
8.613,0.01,0.0,-0.01,0.01
8.623,0.0,-0.0,-0.0,0.0
8.633,0.0,-0.0,0.0,0.01
8.643,0.0,0.0,0.0,0.0
8.653,0.0,-0.0,0.0,0.01
8.663,0.0,-0.0,-0.0,0.01
8.673,0.01,-0.0,-0.01,0.01
8.683,0.0,-0.01,0.0,0.01
8.693,0.0,-0.01,-0.01,0.02
8.703,-0.0,0.0,-0.0,0.0
8.714,0.0,-0.0,-0.02,0.02
8.723,0.0,-0.01,-0.0,0.01
8.734,-0.0,-0.01,-0.0,0.01
8.744,0.0,-0.01,-0.01,0.01
8.754,-0.01,0.0,-0.01,0.02
8.764,-0.0,0.0,-0.01,0.01
8.774,0.0,-0.0,-0.02,0.02
8.784,0.01,-0.01,-0.02,0.02
8.794,0.0,-0.0,-0.02,0.02
8.804,0.0,-0.01,-0.01,0.01
8.814,-0.0,-0.01,-0.02,0.02
8.824,0.01,-0.0,-0.02,0.02
8.834,0.01,-0.0,-0.0,0.01
8.844,-0.0,-0.0,-0.01,0.01
8.854,0.0,-0.01,-0.01,0.01
8.865,0.0,-0.01,-0.01,0.01
8.875,0.0,-0.0,-0.02,0.02
8.885,0.0,-0.0,-0.02,0.02
8.895,0.0,-0.01,-0.02,0.02
8.905,0.01,-0.01,-0.01,0.02
8.915,0.0,-0.0,-0.02,0.02
8.925,0.01,-0.0,-0.02,0.02
8.935,0.01,-0.0,-0.02,0.02
8.945,0.0,-0.0,-0.01,0.02
8.955,0.01,-0.0,-0.03,0.03
8.965,0.0,0.0,-0.04,0.04
8.975,0.0,-0.0,-0.02,0.02
8.985,0.01,-0.0,-0.02,0.02
8.996,-0.0,-0.0,-0.03,0.03
9.006,0.0,-0.0,-0.02,0.02
9.016,-0.0,-0.0,-0.02,0.02
9.026,0.0,0.0,-0.02,0.02
9.036,0.01,-0.0,-0.01,0.01
9.046,0.01,-0.01,-0.02,0.02
9.056,-0.01,-0.0,-0.02,0.02
9.066,-0.0,0.0,-0.03,0.03
9.076,0.0,-0.0,-0.03,0.03
9.086,0.01,-0.0,-0.02,0.03
9.096,0.0,0.0,-0.02,0.02
9.106,0.0,0.0,-0.02,0.03
9.116,0.0,-0.0,-0.02,0.02
9.127,-0.0,-0.01,-0.02,0.02
9.136,0.0,0.0,-0.02,0.02
9.147,0.01,-0.0,-0.02,0.02
9.157,0.0,0.0,-0.03,0.03
9.167,0.0,-0.01,-0.01,0.02
9.177,0.01,-0.01,-0.01,0.01
9.187,0.0,0.0,-0.02,0.02
9.197,-0.0,-0.0,-0.03,0.03
9.207,0.0,-0.01,-0.02,0.03
9.217,0.01,0.0,-0.02,0.02
9.227,0.0,-0.0,-0.02,0.02
9.238,0.01,0.0,-0.02,0.03
9.247,-0.0,0.0,-0.03,0.03
9.257,-0.0,-0.0,-0.02,0.02
9.267,0.0,0.0,-0.01,0.01
9.277,0.0,-0.0,-0.01,0.01
9.288,0.0,-0.0,-0.02,0.02
9.298,0.01,-0.01,-0.03,0.03
9.308,0.0,-0.0,-0.02,0.02
9.318,-0.0,0.0,-0.03,0.03
9.328,-0.0,-0.01,-0.01,0.02
9.338,0.0,0.0,-0.02,0.02
9.348,0.01,-0.0,-0.02,0.02
9.358,0.01,-0.01,-0.02,0.02
9.368,0.0,0.0,-0.03,0.03
9.378,-0.0,-0.01,-0.03,0.03
9.388,0.0,-0.0,-0.02,0.02
9.399,0.0,-0.0,-0.03,0.03
9.409,0.0,-0.01,-0.02,0.02
9.419,0.0,-0.0,-0.02,0.02
9.429,0.0,-0.0,-0.02,0.02
9.439,-0.0,0.0,-0.03,0.03
9.449,-0.0,0.0,-0.02,0.02
9.459,0.01,0.0,-0.02,0.02
9.469,0.01,-0.0,-0.02,0.03
9.479,0.0,-0.01,-0.02,0.02
9.489,-0.0,-0.01,-0.02,0.03
9.499,0.01,-0.01,-0.03,0.03
9.509,0.0,-0.01,-0.03,0.03
9.519,0.0,-0.0,-0.02,0.02
9.529,0.01,-0.0,-0.02,0.02
9.54,-0.0,-0.0,-0.02,0.02
9.549,0.0,-0.01,-0.02,0.02
9.56,0.0,-0.0,-0.02,0.02
9.57,0.0,-0.0,-0.02,0.02
9.58,-0.01,-0.01,-0.03,0.03
9.59,-0.0,-0.0,-0.02,0.02
9.6,-0.0,-0.01,-0.03,0.03
9.61,-0.0,-0.0,-0.04,0.04
9.62,0.01,-0.0,-0.02,0.02
9.63,0.01,0.0,-0.03,0.03
9.64,0.0,-0.0,-0.03,0.03
9.65,-0.0,0.0,-0.02,0.02
9.66,-0.0,-0.0,-0.02,0.02
9.67,0.01,-0.0,-0.02,0.02
9.681,0.01,0.0,-0.03,0.03
9.691,0.0,-0.0,-0.02,0.02
9.701,-0.0,-0.01,-0.03,0.03
9.711,-0.01,0.0,-0.02,0.03
9.721,0.0,-0.01,-0.02,0.02
9.731,0.01,-0.0,-0.02,0.03
9.741,0.01,-0.01,-0.03,0.03
9.751,0.0,-0.01,-0.03,0.03
9.761,-0.01,-0.0,-0.03,0.03
9.771,0.0,-0.01,-0.03,0.04
9.781,0.01,0.0,-0.02,0.02
9.791,-0.0,-0.0,-0.01,0.01
9.801,0.0,-0.0,-0.02,0.02
9.812,0.01,0.0,-0.02,0.03
9.821,0.01,0.0,-0.02,0.02
9.832,-0.0,-0.0,-0.02,0.02
9.842,0.0,-0.0,-0.03,0.03
9.852,0.0,-0.0,-0.02,0.02
9.862,0.01,-0.0,-0.02,0.02
9.872,0.01,-0.0,-0.02,0.02
9.882,0.01,-0.0,-0.02,0.03
9.892,0.01,-0.0,-0.02,0.03
9.902,0.0,-0.0,-0.02,0.02
9.912,0.0,-0.01,-0.03,0.03
9.922,-0.0,-0.0,-0.03,0.03
9.932,0.0,-0.01,-0.03,0.03
9.943,-0.0,0.0,-0.02,0.02
9.953,-0.0,-0.0,-0.03,0.03
9.963,-0.0,-0.0,-0.02,0.02
9.973,0.0,-0.0,-0.01,0.01
9.983,-0.01,0.0,-0.03,0.03
9.993,0.01,-0.0,-0.03,0.03
10.003,0.0,0.0,-0.02,0.02
10.013,0.01,0.01,-0.01,0.02
10.023,0.01,-0.0,-0.02,0.02
10.033,-0.0,0.0,-0.02,0.02
10.043,-0.0,-0.0,-0.02,0.02
10.053,-0.0,-0.01,-0.02,0.02
10.063,-0.0,0.0,-0.02,0.02
10.073,0.0,-0.01,-0.02,0.02
10.083,0.0,-0.01,-0.02,0.03
10.093,0.0,-0.0,-0.02,0.02
10.104,-0.0,-0.0,-0.02,0.02
10.114,0.01,-0.01,-0.02,0.02
10.124,0.0,-0.0,-0.02,0.02
10.134,-0.0,0.0,-0.02,0.02
10.144,0.0,-0.01,-0.01,0.02
10.154,0.0,-0.0,-0.02,0.02
10.164,0.0,-0.01,-0.01,0.01
10.174,0.0,-0.0,-0.02,0.02
10.184,0.01,-0.0,-0.02,0.02
10.194,-0.0,-0.01,-0.02,0.02
10.205,-0.01,0.0,-0.02,0.02
10.214,-0.0,0.0,-0.02,0.02
10.224,-0.0,-0.01,-0.02,0.02
10.235,0.0,0.01,-0.03,0.03
10.245,-0.0,-0.0,-0.02,0.02
10.255,-0.0,-0.01,-0.02,0.02
10.265,0.0,-0.0,-0.02,0.02
10.275,-0.01,0.01,-0.01,0.02
10.285,0.0,-0.0,-0.02,0.02
10.295,0.01,0.0,-0.01,0.01
10.305,0.0,0.0,-0.02,0.02
10.315,0.0,-0.0,-0.01,0.01
10.325,0.01,0.0,-0.01,0.02
10.335,-0.0,0.0,-0.01,0.01
10.345,0.0,-0.01,-0.02,0.02
10.355,-0.0,-0.01,-0.01,0.01
10.366,-0.0,0.0,-0.01,0.01
10.375,0.0,0.0,-0.01,0.01
10.386,0.01,-0.01,-0.01,0.01
10.396,0.0,-0.01,-0.01,0.01
10.406,-0.0,0.0,-0.0,0.0
10.416,-0.01,0.0,-0.0,0.01
10.426,-0.0,0.0,-0.0,0.0
10.436,-0.01,-0.0,-0.01,0.01
10.446,-0.0,-0.01,-0.01,0.02
10.456,0.0,-0.01,-0.01,0.01
10.466,-0.0,-0.0,-0.01,0.01
10.476,-0.01,0.0,-0.02,0.02
10.487,-0.0,-0.0,-0.02,0.02
10.497,-0.0,-0.0,-0.01,0.01
10.507,0.01,-0.01,-0.01,0.01
10.517,0.0,-0.01,-0.01,0.01
10.527,0.01,-0.01,-0.01,0.02
10.537,0.0,0.0,-0.02,0.02
10.547,0.0,-0.0,-0.01,0.01
10.557,-0.0,-0.0,-0.01,0.01
10.567,0.0,-0.01,-0.01,0.01
10.577,0.0,-0.01,-0.01,0.01
10.587,0.0,-0.0,-0.01,0.01
10.597,-0.0,-0.01,-0.01,0.01
10.607,0.0,-0.0,-0.0,0.0
10.617,-0.0,-0.0,-0.01,0.01
10.627,0.0,-0.0,-0.01,0.01
10.637,-0.0,-0.01,-0.01,0.01
10.648,0.0,0.0,-0.0,0.0
10.658,0.0,-0.01,-0.01,0.01
10.668,0.01,-0.01,-0.0,0.01
10.678,0.01,0.0,-0.01,0.01
10.688,-0.01,0.0,-0.01,0.01
10.698,0.01,0.01,-0.01,0.01
10.708,0.0,0.01,-0.0,0.01
10.718,-0.0,0.0,-0.0,0.0
10.728,0.01,-0.0,-0.01,0.01
10.738,0.01,-0.0,-0.01,0.01
10.748,-0.0,-0.0,-0.01,0.01
10.758,0.0,0.01,-0.0,0.01
10.768,0.0,-0.0,-0.01,0.01
10.779,0.0,-0.01,-0.01,0.01
10.789,-0.0,0.0,-0.01,0.01
10.799,0.0,-0.0,-0.02,0.02
10.809,-0.01,-0.01,-0.01,0.02
10.819,-0.0,-0.01,-0.0,0.01
10.829,0.01,-0.0,-0.01,0.01
10.839,0.0,-0.0,-0.01,0.01
10.849,-0.0,-0.0,-0.01,0.01
10.859,-0.0,-0.01,-0.01,0.01
10.869,-0.01,-0.01,-0.01,0.02
10.879,-0.0,0.0,-0.01,0.01
10.889,0.0,-0.0,-0.01,0.01
10.899,0.01,-0.01,0.0,0.02
10.909,0.03,-0.01,-0.11,0.11
10.92,0.13,-0.03,-0.5,0.52
10.93,-0.17,0.06,0.65,0.67
10.94,0.03,-0.04,-0.08,0.1
10.95,-0.0,-0.0,0.0,0.01
10.96,-0.01,-0.0,-0.01,0.01
10.97,0.0,-0.0,-0.01,0.01
10.98,0.0,-0.01,0.02,0.02
10.99,-0.0,-0.0,-0.0,0.01
11.0,-0.01,0.0,0.0,0.01
11.01,0.0,-0.0,-0.0,0.0
11.02,0.0,-0.0,-0.0,0.01
11.03,-0.0,-0.0,0.0,0.01
11.04,-0.0,-0.01,-0.0,0.01
11.051,-0.04,0.0,0.12,0.13
11.061,-0.03,0.01,0.06,0.07
11.071,0.03,-0.01,-0.19,0.19
11.081,0.02,-0.02,-0.1,0.1
11.091,-0.01,-0.0,0.03,0.03
11.101,0.01,-0.0,-0.02,0.02
11.111,-0.0,-0.01,-0.04,0.04
11.121,-0.01,-0.0,-0.01,0.02
11.131,-0.01,-0.01,0.0,0.01
