time,ax,ay,az,atotal
0.0,0.0,-0.01,0.03,0.04
0.01,-0.0,-0.02,-0.02,0.03
0.02,-0.03,-0.0,-0.03,0.04
0.03,-0.01,0.01,-0.11,0.11
0.04,-0.03,-0.01,-0.11,0.12
0.05,-0.04,0.02,-0.05,0.07
0.06,-0.08,0.07,-0.05,0.11
0.071,-0.07,0.05,-0.04,0.1
0.081,-0.05,0.04,0.05,0.08
0.091,-0.07,0.05,0.04,0.09
0.101,-0.07,0.06,0.0,0.09
0.111,-0.09,0.06,0.05,0.12
0.121,-0.06,0.07,0.03,0.1
0.131,-0.06,0.04,0.0,0.07
0.141,-0.04,0.01,-0.05,0.06
0.151,-0.04,-0.01,-0.06,0.07
0.161,0.01,-0.04,0.03,0.05
0.171,0.02,-0.04,0.05,0.07
0.181,-0.03,-0.02,0.02,0.04
0.191,-0.06,0.03,-0.03,0.07
0.202,-0.07,0.02,-0.04,0.08
0.211,-0.05,0.03,0.02,0.06
0.222,-0.06,0.05,0.06,0.1
0.232,-0.04,0.03,0.03,0.06
0.242,-0.06,0.04,0.02,0.08
0.252,-0.07,0.05,-0.0,0.08
0.262,-0.06,0.04,-0.01,0.07
0.272,-0.06,0.04,0.06,0.09
0.282,-0.07,0.04,0.05,0.1
0.292,-0.05,0.03,-0.01,0.06
0.302,-0.06,0.03,-0.02,0.07
0.312,-0.05,0.03,-0.03,0.07
0.322,-0.04,0.02,-0.04,0.06
0.332,-0.03,0.01,0.0,0.04
0.342,-0.05,0.02,0.04,0.07
0.353,-0.06,0.01,0.03,0.07
0.363,-0.05,0.01,0.01,0.05
0.373,-0.05,0.03,0.03,0.06
0.383,-0.04,0.02,0.01,0.04
0.393,-0.04,0.02,0.02,0.05
0.403,-0.05,0.04,0.02,0.07
0.413,-0.05,0.02,0.0,0.06
0.423,-0.05,0.02,0.01,0.05
0.433,-0.05,0.03,0.01,0.06
0.443,-0.05,0.03,0.01,0.06
0.453,-0.06,0.04,0.02,0.08
0.463,-0.06,0.04,0.01,0.07
0.473,-0.05,0.04,-0.01,0.06
0.483,-0.06,0.03,-0.05,0.08
0.494,-0.05,0.03,-0.04,0.07
0.504,-0.04,0.0,-0.01,0.05
0.514,-0.05,0.0,-0.03,0.06
0.524,-0.03,-0.01,0.01,0.04
0.534,-0.03,0.0,0.03,0.04
0.544,-0.02,0.0,0.03,0.04
0.554,-0.05,0.01,0.02,0.05
0.564,-0.06,0.04,0.0,0.08
0.574,-0.06,0.04,-0.0,0.07
0.584,-0.06,0.03,0.02,0.06
0.594,-0.05,0.03,0.02,0.06
0.604,-0.05,0.03,0.02,0.06
0.614,-0.06,0.04,0.03,0.07
0.625,-0.05,0.03,0.02,0.06
0.635,-0.04,0.03,0.04,0.07
0.645,-0.03,0.02,0.08,0.09
0.655,-0.03,0.0,0.04,0.05
0.665,-0.03,0.02,0.02,0.04
0.675,-0.04,0.02,0.02,0.05
0.685,-0.03,0.02,0.0,0.04
0.695,-0.03,0.02,-0.0,0.04
0.705,-0.03,0.02,-0.04,0.05
0.715,-0.04,0.01,-0.09,0.1
0.725,-0.03,0.01,-0.08,0.08
0.735,-0.02,0.01,-0.03,0.04
0.745,-0.02,0.0,-0.01,0.03
0.755,-0.04,0.03,0.06,0.07
0.765,-0.05,0.04,0.07,0.09
0.776,-0.05,0.03,0.07,0.09
0.786,-0.07,0.05,0.02,0.09
0.796,-0.05,0.03,-0.02,0.07
0.806,-0.06,0.04,-0.04,0.08
0.816,-0.06,0.03,-0.03,0.08
0.826,-0.03,0.01,0.02,0.03
0.836,-0.01,-0.01,0.05,0.06
0.846,-0.01,-0.01,0.06,0.06
0.856,-0.02,-0.01,0.05,0.05
0.866,-0.02,0.0,0.0,0.02
0.876,-0.04,0.02,-0.02,0.05
0.887,-0.05,0.03,-0.03,0.06
0.896,-0.06,0.03,-0.01,0.07
0.907,-0.06,0.04,0.0,0.08
0.917,-0.07,0.05,0.02,0.09
0.927,-0.04,0.03,0.04,0.06
0.937,-0.03,0.01,0.03,0.04
0.947,-0.02,-0.01,0.02,0.03
0.957,-0.02,0.0,0.0,0.02
0.967,-0.04,0.02,-0.04,0.06
0.977,-0.04,0.03,0.02,0.05
0.987,-0.05,0.03,0.02,0.07
0.997,-0.04,0.02,0.01,0.04
1.007,-0.03,0.02,0.03,0.05
1.017,-0.04,0.03,-0.01,0.05
1.027,-0.06,0.03,-0.03,0.07
1.038,-0.05,0.02,-0.02,0.06
1.048,-0.06,0.02,-0.01,0.06
1.058,-0.06,0.04,0.01,0.07
1.068,-0.05,0.04,0.05,0.08
1.078,-0.05,0.03,0.04,0.07
1.088,-0.04,0.02,0.04,0.06
1.098,-0.03,0.01,0.03,0.04
1.108,-0.02,0.01,0.01,0.02
1.118,-0.03,0.0,-0.02,0.04
1.128,-0.05,0.01,-0.03,0.06
1.138,-0.03,0.0,-0.02,0.04
1.148,-0.04,0.01,0.01,0.04
1.158,-0.04,0.02,0.01,0.05
1.169,-0.05,0.04,0.0,0.06
1.178,-0.04,0.04,0.03,0.06
1.189,-0.03,0.03,0.04,0.06
1.199,-0.04,0.03,0.06,0.08
1.209,-0.05,0.03,0.05,0.08
1.219,-0.05,0.03,0.02,0.06
1.229,-0.04,0.03,-0.0,0.05
1.239,-0.03,0.01,-0.02,0.04
1.249,-0.01,-0.0,-0.03,0.03
1.259,-0.01,-0.01,-0.03,0.04
1.269,-0.03,0.01,0.0,0.03
1.279,-0.03,0.04,0.06,0.08
1.289,-0.03,0.04,0.06,0.08
1.3,-0.05,0.04,0.07,0.1
1.31,-0.03,0.02,0.03,0.05
1.32,-0.03,0.02,-0.01,0.03
1.33,-0.01,0.01,-0.04,0.04
1.34,-0.02,-0.01,-0.02,0.02
1.35,-0.02,0.01,0.0,0.02
1.36,-0.03,0.01,0.01,0.03
1.37,-0.03,0.02,0.01,0.04
1.38,-0.04,0.02,-0.01,0.05
1.39,-0.04,0.03,-0.02,0.05
1.4,-0.05,0.03,-0.01,0.06
1.41,-0.03,0.02,0.03,0.04
1.42,-0.02,0.02,0.06,0.07
1.43,-0.02,0.03,0.08,0.09
1.441,-0.05,0.04,0.05,0.08
1.45,-0.05,0.02,0.04,0.07
1.461,-0.03,0.03,-0.07,0.08
1.471,-0.02,-0.02,-0.12,0.13
1.481,-0.01,-0.02,-0.03,0.04
1.491,-0.03,0.01,-0.03,0.05
1.501,-0.03,0.01,0.0,0.03
1.511,-0.04,0.03,0.06,0.08
1.521,-0.06,0.06,0.05,0.1
1.531,-0.04,0.04,0.03,0.06
1.541,-0.04,0.03,0.02,0.06
1.551,-0.03,0.01,0.01,0.03
1.562,-0.03,0.02,-0.0,0.03
1.571,-0.03,0.01,0.02,0.04
1.581,-0.03,0.01,-0.01,0.04
1.592,-0.04,0.01,-0.01,0.04
1.602,-0.05,0.02,-0.01,0.06
1.612,-0.03,0.02,0.0,0.03
1.622,-0.03,0.03,0.05,0.06
1.632,-0.05,0.04,0.07,0.09
1.642,-0.05,0.04,0.05,0.08
1.652,-0.03,0.03,0.03,0.05
1.662,-0.02,0.02,0.01,0.03
1.672,-0.02,0.01,-0.01,0.02
1.682,-0.03,0.01,-0.01,0.04
1.693,-0.03,0.01,-0.03,0.05
1.702,-0.03,0.02,-0.04,0.05
1.712,-0.04,0.03,-0.05,0.07
1.723,-0.03,0.03,-0.01,0.05
1.733,-0.04,0.03,-0.0,0.05
1.743,-0.05,0.03,0.03,0.06
1.753,-0.04,0.02,0.03,0.05
1.763,-0.03,0.01,0.0,0.04
1.773,-0.03,0.01,-0.02,0.03
1.783,-0.05,0.03,-0.0,0.06
1.793,-0.05,0.03,0.0,0.06
1.803,-0.05,0.03,0.0,0.05
1.813,-0.05,0.02,-0.01,0.05
1.823,-0.03,0.02,0.01,0.04
1.833,-0.04,0.03,0.03,0.05
1.843,-0.04,0.03,0.04,0.06
1.854,-0.04,0.03,0.0,0.05
1.864,-0.05,0.03,0.01,0.05
1.874,-0.01,-0.01,0.01,0.01
1.884,-0.01,-0.02,0.01,0.02
1.894,-0.01,0.01,0.01,0.02
1.904,-0.05,0.03,0.02,0.06
1.914,-0.04,0.04,0.01,0.06
1.924,-0.05,0.04,0.03,0.07
1.934,-0.04,0.03,0.01,0.06
1.944,-0.03,0.01,0.0,0.03
1.954,-0.01,0.01,-0.01,0.02
1.964,-0.02,0.01,-0.01,0.02
1.974,-0.02,0.01,-0.0,0.02
1.984,-0.02,0.01,0.01,0.03
1.994,-0.03,0.01,0.02,0.04
2.005,-0.04,0.03,0.01,0.05
2.015,-0.04,0.02,-0.0,0.05
2.025,-0.02,0.01,0.0,0.03
2.035,-0.02,-0.0,-0.0,0.02
2.045,-0.01,-0.01,0.0,0.01
2.055,-0.01,-0.01,0.01,0.02
2.065,-0.02,0.0,0.02,0.03
2.075,-0.03,0.01,0.03,0.04
2.085,-0.01,0.02,0.03,0.03
2.095,-0.02,0.01,-0.01,0.02
2.105,-0.03,0.03,0.0,0.04
2.115,-0.02,0.02,0.0,0.03
2.126,-0.03,0.02,-0.02,0.04
2.136,-0.04,0.03,-0.01,0.05
2.146,-0.02,0.01,-0.01,0.03
2.156,-0.03,-0.01,0.02,0.04
2.166,-0.01,-0.0,0.05,0.05
2.176,-0.02,0.01,0.02,0.03
2.186,-0.01,-0.0,-0.0,0.01
2.196,-0.01,0.0,-0.02,0.02
2.206,-0.03,0.02,-0.03,0.04
2.216,-0.04,0.01,-0.01,0.04
2.226,-0.04,0.02,0.04,0.06
2.236,-0.04,0.03,0.07,0.08
2.246,-0.02,0.01,0.04,0.05
2.256,-0.0,-0.01,0.02,0.02
2.267,0.0,-0.01,-0.01,0.02
2.277,-0.0,-0.0,-0.04,0.05
2.287,-0.02,0.02,-0.03,0.04
2.297,-0.03,0.03,-0.01,0.04
2.307,-0.03,0.02,0.03,0.05
2.317,-0.03,0.02,0.06,0.07
2.327,-0.02,0.01,0.03,0.04
2.337,-0.01,-0.0,0.01,0.02
2.347,-0.02,-0.0,-0.02,0.03
2.357,-0.01,-0.0,-0.02,0.02
2.367,-0.02,0.01,0.02,0.03
2.377,-0.03,0.02,0.04,0.05
2.387,-0.03,0.02,0.05,0.06
2.397,-0.02,0.01,0.03,0.04
2.408,-0.01,0.02,0.0,0.02
2.418,-0.0,0.0,-0.02,0.02
2.428,-0.02,0.01,-0.01,0.02
2.438,-0.03,0.01,-0.02,0.04
2.448,-0.01,-0.01,0.0,0.02
2.458,-0.03,0.0,0.01,0.03
2.468,-0.03,0.02,0.04,0.05
2.478,-0.02,0.03,0.01,0.04
2.488,-0.01,0.02,0.03,0.04
2.498,-0.02,0.01,0.03,0.03
2.508,-0.01,0.01,0.02,0.02
2.518,-0.01,0.02,0.03,0.03
2.529,-0.01,-0.01,-0.01,0.01
2.539,-0.03,0.01,-0.02,0.03
2.548,-0.03,0.01,-0.03,0.04
2.559,-0.03,0.02,-0.0,0.03
2.569,-0.03,0.01,0.02,0.03
2.579,-0.01,-0.0,0.05,0.05
2.589,0.01,-0.0,0.04,0.04
2.599,-0.0,0.01,0.02,0.02
2.609,-0.01,0.01,-0.01,0.02
2.619,-0.03,0.03,-0.03,0.05
2.629,-0.05,0.03,-0.03,0.06
2.639,-0.02,0.01,-0.01,0.03
2.649,-0.02,0.0,-0.02,0.03
2.66,-0.02,0.01,-0.02,0.03
2.67,-0.04,0.03,-0.02,0.05
2.68,-0.05,0.03,0.02,0.06
2.69,-0.04,0.03,0.08,0.1
2.7,-0.01,0.01,0.12,0.12
2.71,-0.01,-0.0,0.08,0.08
2.72,-0.01,0.0,0.0,0.01
2.73,-0.02,0.01,-0.03,0.04
2.74,-0.02,0.03,-0.04,0.05
2.75,-0.01,-0.02,-0.03,0.03
2.76,-0.04,0.02,-0.02,0.05
2.77,-0.04,0.03,0.0,0.05
2.78,-0.02,0.02,0.01,0.03
2.79,-0.01,0.01,0.04,0.05
2.8,-0.01,0.0,0.02,0.02
2.81,-0.01,0.01,0.0,0.01
2.821,-0.01,0.0,0.01,0.02
2.831,-0.02,0.02,-0.01,0.03
2.841,-0.02,0.01,-0.03,0.03
2.851,-0.02,0.02,-0.02,0.04
2.861,-0.04,0.01,-0.03,0.05
2.871,-0.01,-0.0,-0.0,0.01
2.881,-0.01,-0.0,0.04,0.04
2.891,-0.02,0.02,0.06,0.06
2.901,-0.03,0.03,0.1,0.11
2.911,-0.02,0.02,0.09,0.09
2.921,-0.0,0.0,0.02,0.02
2.931,-0.02,0.0,-0.04,0.04
2.941,-0.0,-0.0,-0.07,0.07
2.952,-0.0,-0.01,-0.07,0.07
2.962,-0.01,-0.01,-0.05,0.05
2.972,-0.02,0.01,-0.02,0.03
2.982,-0.04,0.04,0.03,0.06
2.992,-0.05,0.03,0.05,0.08
3.002,-0.05,0.05,0.07,0.1
3.012,-0.04,0.04,0.08,0.1
3.022,-0.04,0.04,0.05,0.07
3.032,-0.01,0.01,0.01,0.02
3.042,-0.01,-0.0,-0.02,0.02
3.052,-0.0,-0.01,-0.04,0.05
3.062,0.01,-0.02,-0.06,0.06
3.072,-0.0,-0.02,-0.05,0.05
3.082,-0.0,-0.02,-0.02,0.03
3.093,-0.02,0.01,0.04,0.04
3.103,-0.02,0.02,0.07,0.07
3.113,-0.03,0.02,0.06,0.08
3.123,-0.05,0.04,0.02,0.07
3.133,-0.03,0.03,0.0,0.04
3.143,-0.03,0.02,-0.03,0.05
3.153,-0.02,0.01,-0.06,0.06
3.163,-0.0,-0.01,-0.08,0.08
3.173,-0.0,-0.01,-0.05,0.05
3.183,-0.03,0.02,0.08,0.09
3.193,-0.03,0.04,0.2,0.21
3.203,-0.03,0.04,0.12,0.13
3.214,-0.02,0.03,0.01,0.04
3.224,-0.03,0.03,-0.07,0.08
3.234,-0.01,0.01,-0.11,0.12
3.244,-0.02,0.01,-0.0,0.02
3.254,-0.03,0.01,0.02,0.03
3.264,-0.02,0.01,-0.03,0.04
3.274,-0.03,0.03,0.08,0.09
3.284,-0.04,0.06,0.07,0.1
3.294,-0.04,0.04,0.01,0.05
3.304,-0.02,0.02,0.01,0.03
3.314,-0.01,0.01,-0.02,0.02
3.324,-0.01,-0.0,-0.01,0.01
3.334,-0.01,-0.0,0.01,0.01
3.345,-0.01,-0.0,0.0,0.01
3.355,-0.02,0.01,-0.04,0.04
3.365,-0.03,0.02,-0.0,0.04
3.375,-0.02,0.02,0.02,0.04
3.385,-0.03,0.03,0.03,0.05
3.395,-0.03,0.04,0.02,0.05
3.405,-0.03,0.02,0.03,0.04
3.415,-0.03,0.0,0.01,0.03
3.425,-0.0,-0.01,0.02,0.03
3.435,-0.01,0.0,0.0,0.01
3.445,-0.01,0.01,-0.03,0.03
3.455,-0.01,0.01,-0.03,0.04
3.465,-0.01,0.01,-0.0,0.02
3.475,-0.03,0.01,-0.0,0.03
3.485,-0.02,0.02,0.03,0.05
3.496,-0.03,0.03,0.04,0.05
3.506,-0.03,0.02,0.04,0.05
3.516,-0.02,0.02,0.05,0.06
3.526,-0.01,0.01,0.03,0.03
3.536,-0.01,0.0,-0.02,0.02
3.546,-0.01,-0.0,-0.06,0.06
3.556,-0.02,-0.0,-0.06,0.06
3.566,-0.03,0.02,-0.04,0.06
3.576,-0.03,0.01,0.01,0.04
3.586,-0.02,0.01,0.06,0.06
3.596,-0.02,0.01,0.06,0.06
3.606,-0.02,0.03,0.05,0.06
3.616,-0.03,0.03,0.03,0.05
3.626,-0.03,0.03,0.0,0.04
3.637,-0.04,0.03,-0.01,0.06
3.647,-0.03,0.03,-0.01,0.04
3.657,-0.02,0.02,-0.0,0.03
3.667,-0.02,0.02,0.0,0.03
3.677,-0.01,0.01,0.03,0.03
3.687,-0.01,0.01,-0.02,0.02
3.697,-0.02,0.02,0.0,0.03
3.707,-0.02,0.01,-0.03,0.04
3.717,-0.02,-0.0,-0.04,0.04
3.727,-0.03,0.01,-0.01,0.03
3.737,-0.02,0.0,0.02,0.03
3.747,-0.02,0.01,0.05,0.06
3.758,-0.02,0.03,0.05,0.06
3.767,-0.02,0.02,0.01,0.03
3.778,-0.02,0.01,-0.01,0.03
3.788,-0.02,0.01,-0.01,0.03
3.798,-0.04,0.01,-0.03,0.05
3.808,-0.02,-0.0,-0.01,0.02
3.818,-0.03,0.01,0.02,0.04
3.828,-0.03,0.02,0.04,0.06
3.838,-0.02,0.02,0.05,0.06
3.848,-0.02,0.02,0.02,0.03
3.858,-0.03,0.03,0.01,0.05
3.868,-0.03,0.02,-0.0,0.03
3.878,-0.03,0.01,-0.02,0.04
3.888,-0.02,0.01,-0.01,0.02
3.898,-0.02,0.0,0.0,0.02
3.909,-0.02,0.01,0.02,0.03
3.919,-0.03,0.03,0.03,0.05
3.929,-0.04,0.03,0.04,0.06
3.939,-0.03,0.02,0.04,0.06
3.949,-0.03,0.03,0.04,0.06
3.959,-0.02,0.02,0.05,0.06
3.969,-0.03,0.01,0.0,0.03
3.979,-0.02,0.0,-0.02,0.03
3.989,-0.01,-0.0,-0.03,0.04
3.999,0.0,-0.0,-0.02,0.02
4.009,-0.0,0.01,0.04,0.04
4.019,-0.0,0.0,0.01,0.01
4.029,0.0,-0.01,-0.03,0.03
4.039,-0.01,-0.0,-0.0,0.01
4.05,-0.04,0.03,0.01,0.05
4.06,-0.03,0.02,-0.0,0.04
4.07,-0.02,0.03,0.0,0.04
4.08,-0.04,0.04,-0.0,0.06
4.09,-0.02,0.02,-0.01,0.03
4.1,-0.01,0.01,-0.02,0.02
4.11,-0.0,0.0,-0.01,0.01
4.12,0.0,-0.02,-0.0,0.02
4.13,-0.0,-0.01,0.02,0.02
4.14,-0.02,0.01,0.03,0.04
4.15,-0.04,0.03,0.02,0.05
4.16,-0.03,0.02,0.0,0.04
4.17,-0.03,0.02,0.0,0.04
4.18,-0.03,0.04,0.04,0.06
4.191,-0.02,0.01,0.02,0.03
4.201,-0.01,0.01,0.03,0.03
4.211,-0.02,0.01,0.03,0.03
4.221,-0.01,-0.0,-0.02,0.02
4.231,-0.01,-0.01,-0.02,0.03
4.241,-0.02,0.01,-0.04,0.05
4.251,-0.02,0.01,-0.06,0.06
4.261,-0.02,0.02,-0.01,0.03
4.271,-0.05,0.04,0.05,0.08
4.281,-0.05,0.05,0.07,0.1
4.291,-0.04,0.04,0.06,0.08
4.301,-0.03,0.03,0.03,0.05
4.312,-0.02,0.01,-0.01,0.02
4.322,0.01,-0.0,-0.06,0.06
4.332,0.01,-0.0,-0.05,0.05
4.342,-0.01,-0.01,0.01,0.02
4.352,-0.02,0.01,0.04,0.04
4.362,-0.02,0.03,0.03,0.04
4.372,-0.02,0.02,-0.01,0.04
4.382,-0.02,0.02,0.03,0.04
4.392,-0.03,0.03,0.03,0.05
4.402,-0.0,0.0,-0.0,0.0
4.412,0.01,-0.01,-0.0,0.02
4.422,-0.0,-0.02,0.01,0.02
4.432,-0.01,-0.01,-0.01,0.02
4.443,-0.02,0.01,-0.01,0.02
4.453,-0.03,0.03,-0.0,0.05
4.463,-0.04,0.05,0.0,0.07
4.473,-0.05,0.06,0.04,0.08
4.483,-0.04,0.03,0.05,0.07
4.493,-0.03,0.02,0.03,0.05
4.503,-0.01,-0.0,-0.0,0.01
4.513,-0.01,0.0,0.0,0.01
4.523,-0.01,0.01,0.02,0.03
4.533,0.02,-0.01,0.03,0.03
4.543,0.01,-0.01,-0.0,0.01
4.553,-0.01,0.0,-0.03,0.03
4.563,-0.01,0.01,-0.02,0.02
4.574,-0.02,0.02,0.02,0.03
4.584,-0.04,0.02,0.01,0.04
4.594,-0.03,0.03,-0.01,0.04
4.604,-0.03,0.02,-0.0,0.03
4.614,-0.02,0.02,0.02,0.03
4.624,-0.01,0.01,0.05,0.05
4.634,-0.01,0.01,0.03,0.04
4.644,-0.01,0.01,-0.04,0.04
4.654,-0.02,0.01,-0.02,0.03
4.664,-0.01,-0.0,0.02,0.02
4.674,-0.0,-0.01,0.02,0.03
4.684,0.0,-0.01,-0.03,0.03
4.694,-0.02,0.0,0.01,0.02
4.705,-0.03,0.01,0.0,0.03
4.714,-0.01,0.01,0.01,0.01
4.725,-0.02,0.01,-0.0,0.03
4.735,-0.03,0.02,-0.0,0.03
4.745,-0.03,0.02,0.01,0.03
4.755,-0.03,0.03,0.05,0.06
4.765,-0.04,0.05,0.04,0.08
4.775,-0.04,0.04,0.03,0.06
4.785,-0.03,0.03,0.02,0.05
4.795,-0.02,0.02,-0.02,0.04
4.805,0.0,-0.01,-0.01,0.02
4.815,0.01,-0.02,0.01,0.02
4.825,-0.01,-0.0,-0.01,0.01
4.835,-0.0,-0.01,-0.02,0.02
4.845,-0.01,0.01,0.01,0.02
4.855,-0.03,0.04,0.04,0.06
4.865,-0.04,0.04,0.03,0.07
4.876,-0.03,0.03,0.03,0.05
4.886,-0.02,0.01,0.03,0.04
4.896,-0.01,0.0,-0.01,0.01
4.906,-0.01,-0.0,-0.01,0.02
4.916,-0.01,-0.01,-0.0,0.01
4.926,0.0,-0.01,0.0,0.01
4.936,-0.02,0.02,-0.02,0.03
4.946,-0.03,0.03,0.02,0.04
4.956,-0.01,0.03,0.02,0.04
4.966,-0.01,0.02,0.03,0.04
4.976,-0.02,0.02,0.02,0.04
4.986,-0.0,-0.0,0.0,0.01
4.996,-0.0,-0.01,0.0,0.01
5.006,-0.01,0.01,0.01,0.02
5.017,-0.01,0.01,-0.01,0.02
5.027,-0.01,0.01,-0.03,0.03
5.037,-0.01,0.01,-0.01,0.02
5.047,-0.02,0.02,0.02,0.03
5.057,-0.02,0.03,0.03,0.05
5.067,-0.02,0.02,0.01,0.03
5.077,-0.02,0.0,0.02,0.03
5.087,-0.01,0.01,0.02,0.02
5.097,-0.0,-0.0,-0.01,0.01
5.107,-0.0,0.0,-0.02,0.02
5.117,-0.03,0.01,-0.02,0.03
5.127,-0.03,0.03,0.02,0.05
5.138,-0.03,0.03,0.02,0.05
5.148,-0.03,0.02,0.03,0.05
5.158,-0.02,0.01,0.04,0.05
5.168,-0.02,0.02,0.02,0.03
5.178,0.0,0.0,-0.01,0.01
5.188,-0.0,-0.0,0.0,0.01
5.198,0.0,-0.01,-0.01,0.02
5.208,-0.0,-0.01,-0.02,0.02
5.218,-0.01,-0.0,-0.0,0.01
5.228,-0.02,0.01,0.01,0.03
5.238,-0.03,0.02,0.02,0.04
5.248,-0.01,0.03,0.03,0.05
5.259,-0.02,0.03,0.03,0.04
5.268,-0.01,0.02,0.02,0.03
5.279,-0.01,0.01,0.01,0.02
5.289,-0.0,-0.0,-0.0,0.0
5.299,-0.0,0.01,-0.01,0.01
5.309,-0.01,0.01,0.0,0.01
5.319,-0.01,0.01,-0.02,0.02
5.329,-0.03,0.02,-0.01,0.04
5.339,-0.02,0.03,-0.02,0.04
5.349,-0.02,0.03,0.0,0.04
5.359,-0.03,0.03,0.02,0.05
5.369,-0.01,0.0,0.03,0.03
5.379,-0.0,-0.01,0.05,0.05
5.389,-0.0,-0.0,0.05,0.05
5.399,-0.01,0.01,0.03,0.03
5.41,-0.0,0.01,0.01,0.02
5.42,-0.02,0.01,-0.03,0.03
5.43,-0.01,0.01,-0.04,0.05
5.44,-0.01,0.01,-0.0,0.02
5.45,-0.03,0.02,-0.01,0.04
5.46,-0.03,0.02,-0.02,0.04
5.47,-0.02,0.02,-0.01,0.03
5.48,-0.01,0.02,0.0,0.02
5.49,-0.02,0.02,0.05,0.05
5.5,0.0,-0.01,0.02,0.02
5.51,-0.01,0.01,0.02,0.02
5.52,-0.02,0.02,0.01,0.03
5.53,-0.01,0.0,-0.04,0.04
5.541,-0.02,0.01,-0.01,0.03
5.551,-0.02,0.01,-0.01,0.02
5.561,-0.0,0.01,-0.01,0.01
5.571,-0.01,0.01,0.02,0.03
5.581,-0.01,0.01,0.05,0.06
5.591,-0.01,0.0,0.03,0.03
5.601,-0.01,0.01,0.02,0.03
5.611,-0.01,0.01,-0.01,0.02
5.621,-0.01,0.0,-0.01,0.02
5.631,-0.01,0.01,-0.01,0.02
5.641,-0.02,0.02,0.02,0.03
5.651,-0.03,0.03,0.01,0.04
5.661,-0.02,0.02,-0.0,0.03
5.672,-0.03,0.02,0.02,0.04
5.681,-0.01,0.0,-0.02,0.03
5.692,0.0,-0.0,-0.01,0.01
5.702,-0.0,-0.0,-0.01,0.01
5.712,-0.02,-0.0,-0.01,0.02
5.722,-0.04,0.01,-0.0,0.04
5.732,-0.02,0.02,0.01,0.04
5.742,-0.01,0.01,0.04,0.05
5.752,-0.01,0.01,0.04,0.04
5.762,-0.01,0.01,0.02,0.03
5.772,-0.01,0.0,0.01,0.01
5.782,-0.0,-0.01,-0.0,0.01
5.792,-0.01,0.01,-0.01,0.02
5.802,-0.02,0.02,0.03,0.04
5.813,-0.01,0.02,0.03,0.03
5.822,-0.02,0.02,0.04,0.05
5.833,-0.04,0.02,-0.03,0.05
5.843,-0.01,-0.0,-0.04,0.04
5.853,0.01,-0.0,0.01,0.01
5.863,-0.01,0.0,0.04,0.04
5.873,-0.01,0.01,0.03,0.03
5.883,-0.01,0.02,0.04,0.05
5.893,-0.02,0.02,-0.01,0.03
5.903,-0.01,0.02,-0.01,0.02
5.913,-0.01,0.02,-0.0,0.02
5.923,-0.01,0.01,-0.01,0.02
5.933,-0.01,0.01,-0.01,0.02
5.943,-0.01,0.0,0.02,0.02
5.953,0.01,-0.01,0.02,0.02
5.964,0.02,-0.01,0.04,0.05
5.974,-0.01,0.02,0.01,0.02
5.984,-0.04,0.03,0.01,0.05
5.994,-0.04,0.04,0.0,0.06
6.004,-0.05,0.03,0.03,0.06
6.014,-0.02,0.01,-0.02,0.03
6.024,0.01,0.0,0.02,0.02
6.034,0.02,-0.0,0.04,0.04
6.044,0.01,-0.0,0.01,0.01
6.054,0.0,-0.0,-0.01,0.01
6.064,-0.01,0.02,-0.05,0.05
6.074,-0.03,0.03,0.01,0.04
6.084,-0.04,0.03,0.03,0.06
6.095,-0.04,0.03,0.04,0.06
6.105,-0.02,0.02,-0.01,0.03
6.115,0.01,-0.01,-0.03,0.03
6.125,0.01,-0.01,-0.01,0.02
6.135,-0.0,-0.0,0.01,0.01
6.145,-0.02,0.02,0.07,0.07
6.155,-0.02,0.03,0.07,0.08
6.165,-0.03,0.03,0.04,0.06
6.175,-0.02,0.02,-0.01,0.03
6.185,-0.0,0.0,-0.04,0.04
6.195,-0.0,-0.01,-0.05,0.05
6.205,-0.0,0.0,0.01,0.01
6.215,-0.02,0.01,0.02,0.03
6.226,-0.02,0.02,-0.01,0.03
6.236,-0.03,0.02,0.03,0.05
6.246,-0.04,0.03,0.05,0.07
6.256,-0.02,0.02,0.03,0.04
6.266,0.0,-0.0,-0.0,0.01
6.276,0.02,-0.02,-0.04,0.05
6.286,0.02,-0.01,0.02,0.03
6.296,0.0,-0.01,-0.0,0.01
6.306,-0.01,-0.01,-0.02,0.03
6.316,-0.03,0.01,0.0,0.03
6.326,-0.04,0.04,-0.0,0.05
6.336,-0.04,0.03,0.02,0.06
6.347,-0.03,0.03,-0.01,0.04
6.356,-0.02,0.02,0.03,0.04
6.367,-0.0,0.01,0.03,0.03
6.377,0.01,-0.0,0.03,0.03
6.387,0.0,-0.01,0.0,0.01
6.397,-0.02,0.0,-0.01,0.02
6.407,-0.02,0.01,-0.02,0.02
6.417,-0.04,0.02,-0.01,0.04
6.427,-0.03,0.02,0.01,0.04
6.437,-0.01,0.01,0.04,0.04
6.447,-0.01,0.01,0.03,0.04
6.457,-0.01,0.01,0.03,0.03
6.467,0.0,-0.0,-0.0,0.01
6.477,0.0,-0.0,-0.01,0.01
6.487,-0.01,0.01,-0.02,0.03
6.497,-0.03,0.01,-0.02,0.04
6.508,-0.03,0.02,-0.0,0.04
6.518,-0.03,0.03,0.02,0.05
6.528,-0.02,0.03,0.05,0.06
6.538,-0.02,0.02,0.06,0.07
6.548,-0.01,0.01,0.04,0.04
6.558,-0.02,0.01,0.01,0.03
6.568,-0.0,-0.0,-0.01,0.01
6.578,0.0,-0.0,-0.03,0.03
6.588,0.0,-0.01,-0.04,0.04
6.598,-0.02,0.01,-0.04,0.05
6.608,-0.02,0.02,-0.03,0.04
6.618,-0.02,0.02,0.02,0.03
6.628,-0.04,0.04,0.06,0.08
6.639,-0.04,0.04,0.07,0.09
6.649,-0.03,0.03,0.0,0.05
6.659,-0.01,0.0,-0.02,0.03
6.669,0.01,-0.01,-0.04,0.04
6.679,0.01,-0.02,-0.01,0.03
6.689,0.0,-0.01,-0.01,0.02
6.699,-0.01,-0.0,0.0,0.01
6.709,-0.02,0.01,0.06,0.06
6.719,-0.04,0.02,0.03,0.05
6.729,-0.01,0.01,-0.01,0.02
6.739,-0.01,0.01,0.02,0.02
6.749,-0.03,0.02,0.07,0.08
6.759,-0.02,0.02,0.05,0.06
6.77,0.01,0.0,0.03,0.03
6.779,-0.0,-0.0,-0.01,0.01
6.79,-0.01,0.01,-0.04,0.05
6.8,-0.02,0.01,-0.02,0.03
6.81,-0.02,0.01,-0.02,0.03
6.82,-0.02,0.02,-0.02,0.04
6.83,-0.03,0.02,0.01,0.04
6.84,-0.03,0.03,0.03,0.05
6.85,-0.03,0.02,0.01,0.04
6.86,-0.02,0.02,0.03,0.04
6.87,-0.02,0.02,0.03,0.04
6.88,-0.01,0.01,0.01,0.02
6.89,-0.01,0.01,-0.01,0.02
6.9,-0.01,0.0,-0.03,0.04
6.911,-0.01,-0.01,-0.04,0.04
6.921,-0.0,-0.0,0.02,0.02
6.931,-0.01,0.0,0.07,0.07
6.941,-0.03,0.02,0.06,0.07
6.951,-0.02,0.02,0.01,0.03
6.961,-0.01,0.02,0.01,0.02
6.971,-0.02,0.03,0.03,0.04
6.981,-0.03,0.02,0.01,0.03
6.991,-0.01,0.01,-0.04,0.04
7.001,0.0,-0.0,-0.05,0.05
7.011,-0.0,0.01,0.0,0.01
7.021,-0.02,0.01,0.03,0.04
7.031,-0.02,0.0,0.03,0.03
7.041,-0.01,0.01,0.0,0.02
7.052,-0.02,0.01,-0.01,0.03
7.062,-0.03,0.02,-0.0,0.04
7.072,-0.01,0.01,0.02,0.02
7.082,-0.01,0.02,0.01,0.02
7.092,-0.03,0.03,0.0,0.04
7.102,-0.03,0.03,-0.0,0.04
7.112,-0.01,0.01,-0.02,0.03
7.122,-0.0,-0.01,-0.01,0.01
7.132,-0.01,-0.0,0.01,0.01
7.142,-0.01,0.0,-0.01,0.01
7.152,-0.02,0.02,0.04,0.05
7.162,-0.04,0.03,0.06,0.08
7.172,-0.03,0.02,0.0,0.03
7.183,-0.01,-0.0,-0.02,0.03
7.192,-0.01,-0.0,-0.01,0.01
7.203,-0.0,-0.01,0.01,0.02
7.213,0.0,-0.01,0.02,0.02
7.223,-0.01,0.01,-0.01,0.01
7.233,-0.02,0.01,-0.03,0.04
7.243,-0.04,0.02,0.0,0.04
7.253,-0.03,0.03,0.05,0.07
7.263,-0.04,0.03,0.05,0.07
7.273,-0.02,0.02,0.0,0.03
7.283,-0.01,0.01,-0.03,0.03
7.293,-0.01,0.01,-0.02,0.02
7.303,-0.01,0.01,-0.01,0.02
7.313,-0.01,0.01,-0.03,0.03
7.324,-0.02,0.01,-0.01,0.02
7.334,-0.02,0.0,0.01,0.02
7.344,-0.02,0.01,0.02,0.03
7.354,-0.02,0.02,0.04,0.05
7.364,-0.02,0.01,0.02,0.04
7.374,-0.01,0.02,0.02,0.03
7.384,-0.01,0.01,0.0,0.01
7.394,0.01,-0.01,-0.03,0.03
7.404,0.02,-0.02,-0.01,0.03
7.414,0.01,-0.01,0.02,0.03
7.424,-0.02,0.0,0.03,0.04
7.434,-0.02,0.02,0.01,0.03
7.444,-0.03,0.03,-0.02,0.05
7.455,-0.04,0.03,0.01,0.05
7.465,-0.03,0.03,0.02,0.04
7.475,-0.02,0.01,-0.0,0.02
7.485,-0.01,0.0,0.01,0.01
7.495,-0.01,0.0,0.03,0.03
7.505,0.0,-0.0,0.03,0.03
7.515,0.01,-0.0,0.04,0.04
7.525,-0.02,0.01,0.02,0.03
7.535,-0.02,0.02,-0.03,0.04
7.545,-0.03,0.01,-0.03,0.04
7.555,-0.02,0.01,-0.01,0.03
7.565,-0.03,0.02,0.0,0.04
7.575,-0.03,0.02,0.03,0.05
7.586,-0.01,0.02,0.06,0.06
7.596,-0.01,0.0,0.02,0.02
7.606,-0.01,0.0,0.0,0.01
7.616,-0.01,0.01,0.0,0.02
7.626,-0.01,0.0,-0.0,0.01
7.636,-0.01,-0.01,-0.01,0.02
7.646,-0.0,-0.0,-0.0,0.01
7.656,-0.02,0.02,0.02,0.04
7.666,-0.02,0.02,0.02,0.03
7.676,-0.02,0.02,0.0,0.03
7.686,-0.04,0.02,-0.01,0.05
7.696,-0.03,0.02,0.0,0.03
7.706,-0.0,-0.0,0.0,0.0
7.716,-0.0,-0.0,0.04,0.04
7.726,-0.02,0.01,-0.0,0.02
7.736,0.0,-0.0,-0.0,0.0
7.747,-0.02,0.01,0.01,0.02
7.757,-0.03,0.02,-0.01,0.04
7.767,-0.02,0.01,0.0,0.03
7.777,-0.02,0.01,0.03,0.04
7.787,-0.02,0.01,0.03,0.04
7.797,-0.02,0.01,-0.01,0.02
7.807,-0.01,0.01,-0.02,0.03
7.817,-0.01,-0.0,-0.01,0.02
7.827,0.01,-0.01,0.03,0.03
7.837,0.01,-0.01,0.03,0.04
7.847,0.01,-0.02,0.01,0.03
7.857,0.01,-0.01,-0.0,0.01
7.867,-0.01,0.0,-0.01,0.02
7.878,-0.03,0.02,0.02,0.04
7.888,-0.03,0.03,0.02,0.05
7.898,-0.03,0.03,0.04,0.06
7.908,-0.03,0.03,0.02,0.05
7.918,-0.03,0.02,-0.01,0.03
7.928,-0.01,0.01,-0.0,0.02
7.938,-0.0,0.01,-0.01,0.01
7.948,-0.0,-0.0,0.04,0.04
7.958,-0.01,0.01,0.03,0.04
7.968,-0.01,0.01,0.01,0.02
7.978,-0.0,-0.0,-0.02,0.02
7.988,0.0,0.0,-0.02,0.02
7.998,-0.0,0.0,-0.0,0.0
8.009,-0.01,0.0,0.02,0.02
8.019,-0.01,0.01,-0.01,0.02
8.029,-0.02,0.01,0.03,0.04
8.039,-0.03,0.02,0.04,0.05
8.049,-0.03,0.02,-0.01,0.04
8.059,-0.02,0.03,-0.02,0.04
8.069,-0.03,0.03,0.01,0.04
8.079,-0.02,0.02,0.01,0.03
8.089,-0.01,0.01,0.01,0.01
8.099,-0.01,0.01,0.01,0.01
8.109,0.01,-0.02,0.0,0.02
8.119,0.02,-0.01,-0.02,0.03
8.129,0.02,-0.02,-0.03,0.04
8.139,-0.01,0.01,-0.01,0.02
8.149,-0.04,0.04,0.02,0.06
8.16,-0.05,0.04,0.05,0.08
8.17,-0.03,0.02,0.01,0.04
8.18,-0.02,0.01,0.03,0.04
8.19,-0.0,-0.0,0.01,0.01
8.2,-0.01,0.0,0.02,0.02
8.21,-0.03,0.02,0.04,0.05
8.22,-0.02,0.01,0.01,0.02
8.23,-0.01,0.0,0.01,0.02
8.24,-0.01,0.02,0.01,0.02
8.25,0.0,0.0,-0.02,0.02
8.26,-0.0,0.0,0.01,0.01
8.271,-0.02,0.03,0.05,0.06
8.28,-0.02,0.02,0.01,0.03
8.291,-0.0,0.0,-0.02,0.02
8.301,0.01,-0.01,-0.01,0.02
8.311,0.0,-0.01,-0.0,0.01
8.321,0.0,-0.0,0.02,0.02
8.331,0.0,0.0,0.03,0.03
8.341,-0.02,0.01,0.03,0.04
8.351,-0.02,0.02,-0.01,0.03
8.361,-0.02,0.01,-0.01,0.02
8.371,-0.01,0.01,0.0,0.02
8.381,-0.01,0.01,0.02,0.02
8.391,-0.0,0.0,0.01,0.01
8.401,0.01,-0.0,0.03,0.03
8.411,-0.01,0.01,0.01,0.02
8.422,-0.0,-0.0,-0.03,0.04
8.432,-0.02,0.0,-0.03,0.03
8.442,-0.02,0.03,0.03,0.05
8.452,-0.04,0.03,0.05,0.07
8.462,-0.03,0.03,-0.01,0.04
8.472,-0.01,0.01,-0.02,0.03
8.482,-0.0,0.01,0.01,0.01
8.492,0.01,0.0,0.01,0.01
8.502,-0.01,0.01,-0.01,0.01
8.512,-0.01,-0.0,0.0,0.01
8.522,-0.02,0.02,0.01,0.03
8.533,-0.02,0.02,0.04,0.04
8.542,-0.02,0.02,-0.01,0.03
8.552,-0.01,0.01,-0.03,0.03
8.563,-0.0,0.01,0.01,0.02
8.573,-0.01,0.01,0.03,0.03
8.583,-0.01,0.01,-0.0,0.02
8.593,-0.01,0.01,-0.01,0.02
8.603,-0.03,0.01,0.0,0.03
8.613,-0.01,0.01,0.01,0.02
8.623,-0.0,0.0,0.01,0.01
8.633,0.01,-0.01,0.01,0.02
8.643,0.01,-0.01,0.01,0.01
8.653,0.0,-0.0,0.03,0.03
8.663,-0.02,0.02,0.02,0.03
8.673,-0.04,0.02,-0.01,0.04
8.684,-0.03,0.02,-0.0,0.03
8.693,-0.02,0.02,-0.0,0.03
8.704,-0.01,0.0,-0.01,0.02
8.714,-0.0,-0.0,0.01,0.01
8.724,-0.01,0.01,0.03,0.03
8.734,-0.02,0.01,0.02,0.03
8.744,-0.01,0.01,0.01,0.02
8.754,0.0,-0.01,-0.0,0.01
8.764,0.01,-0.01,-0.02,0.03
8.774,0.01,-0.01,0.01,0.02
8.784,-0.0,-0.0,0.02,0.02
8.794,-0.03,0.02,0.04,0.05
8.804,-0.04,0.04,0.02,0.06
8.814,-0.03,0.01,-0.02,0.03
8.825,-0.04,0.02,-0.02,0.05
8.834,-0.03,0.03,0.03,0.05
8.845,-0.01,0.0,0.04,0.04
8.855,0.01,-0.0,0.01,0.02
8.865,0.02,-0.01,0.02,0.02
8.875,-0.0,0.0,-0.04,0.04
8.885,0.0,0.01,-0.04,0.04
8.895,-0.02,0.01,-0.03,0.04
8.905,-0.02,-0.0,-0.01,0.02
8.915,-0.01,-0.01,0.06,0.06
8.925,-0.02,0.0,0.06,0.06
8.935,-0.01,0.01,0.01,0.01
8.945,0.0,0.0,-0.0,0.01
8.955,-0.0,0.01,0.01,0.02
8.965,-0.01,0.01,0.03,0.03
8.976,0.02,-0.02,-0.0,0.02
8.986,-0.0,-0.01,-0.01,0.01
8.996,-0.02,0.01,0.02,0.03
9.006,-0.01,0.01,-0.01,0.01
9.016,0.0,-0.01,-0.01,0.01
9.026,-0.03,0.02,0.03,0.05
9.036,-0.03,0.01,0.04,0.05
9.046,0.0,-0.0,0.03,0.03
9.056,-0.01,0.0,-0.05,0.05
9.066,-0.01,0.0,-0.05,0.05
9.076,-0.03,0.02,-0.04,0.05
9.086,-0.04,0.01,0.01,0.04
9.096,-0.04,0.03,0.05,0.07
9.107,-0.01,0.01,0.04,0.05
9.117,-0.01,0.01,0.06,0.06
9.127,-0.01,0.01,0.01,0.02
9.137,0.01,-0.01,-0.01,0.02
9.147,-0.01,0.01,0.0,0.01
9.157,-0.02,0.02,0.05,0.05
9.167,-0.01,0.01,0.07,0.07
9.177,-0.02,0.02,0.05,0.06
9.187,0.0,0.01,0.04,0.04
9.197,-0.0,0.01,-0.0,0.01
9.207,0.01,0.0,-0.06,0.06
9.217,0.01,-0.01,-0.06,0.06
9.227,0.01,-0.01,-0.03,0.03
9.238,0.01,-0.0,0.02,0.02
9.248,-0.0,0.0,0.01,0.01
9.258,-0.0,-0.0,0.01,0.01
9.268,-0.02,0.01,0.04,0.04
9.278,-0.02,0.02,0.02,0.04
9.288,-0.01,0.02,-0.0,0.03
9.298,-0.01,0.01,-0.02,0.03
9.308,-0.01,0.01,-0.01,0.01
9.318,-0.0,0.0,-0.02,0.02
9.328,0.0,-0.0,0.01,0.01
9.338,-0.0,0.0,0.04,0.04
9.348,-0.01,0.01,0.02,0.03
9.358,-0.01,0.01,0.0,0.01
9.368,-0.02,0.01,-0.0,0.03
9.379,-0.01,0.01,-0.02,0.03
9.389,-0.02,0.01,-0.0,0.02
9.399,-0.01,0.01,0.02,0.03
9.409,0.0,0.01,0.02,0.02
9.419,-0.01,0.01,-0.01,0.02
9.429,-0.0,-0.0,-0.01,0.01
9.439,-0.0,-0.01,-0.02,0.02
9.449,-0.02,-0.01,-0.01,0.02
9.459,-0.03,0.01,0.02,0.03
9.469,-0.04,0.01,0.01,0.04
9.479,-0.04,0.03,0.01,0.05
9.489,-0.02,0.02,0.0,0.03
9.5,-0.01,-0.0,0.04,0.04
9.51,-0.0,-0.0,0.04,0.04
9.52,0.01,-0.01,-0.0,0.01
9.53,-0.0,-0.0,0.0,0.0
9.54,-0.01,0.0,0.01,0.01
9.55,-0.01,0.01,-0.0,0.01
9.56,-0.02,0.01,0.02,0.03
9.57,-0.02,0.01,0.02,0.03
9.58,-0.02,0.01,0.03,0.04
9.59,-0.02,0.01,0.01,0.03
9.6,-0.02,0.01,-0.0,0.02
9.61,-0.01,0.0,-0.0,0.01
9.62,-0.01,-0.0,0.0,0.01
9.63,-0.01,0.01,-0.03,0.03
9.64,0.0,0.01,0.01,0.02
9.651,-0.02,0.01,0.02,0.03
9.661,-0.01,-0.0,-0.01,0.02
9.671,-0.0,-0.0,-0.01,0.01
9.681,-0.01,0.01,-0.0,0.02
9.691,-0.02,0.01,0.01,0.02
9.701,-0.01,0.02,0.05,0.05
9.711,-0.01,0.01,0.03,0.03
9.721,-0.0,0.0,-0.0,0.0
9.731,0.01,-0.01,-0.01,0.02
9.741,0.02,-0.01,-0.02,0.03
9.751,-0.01,0.01,-0.0,0.01
9.761,-0.02,0.02,0.01,0.03
9.771,-0.03,0.02,-0.01,0.04
9.781,-0.01,0.0,0.02,0.02
9.792,-0.02,0.01,0.05,0.06
9.802,-0.0,0.0,0.03,0.03
9.812,-0.01,0.01,0.02,0.02
9.822,-0.0,0.0,-0.01,0.01
9.832,-0.01,-0.0,-0.02,0.02
9.842,-0.01,-0.0,-0.01,0.02
9.852,-0.01,0.01,-0.04,0.04
9.862,-0.03,0.01,0.01,0.03
9.872,-0.03,0.03,0.05,0.07
9.882,-0.04,0.04,0.04,0.07
9.892,-0.03,0.03,0.06,0.08
9.902,-0.03,0.03,0.07,0.08
9.913,-0.01,0.01,-0.0,0.02
9.922,0.01,-0.01,-0.05,0.05
9.933,0.03,-0.03,-0.04,0.06
9.943,0.02,-0.02,-0.03,0.04
9.953,0.01,-0.02,0.06,0.07
9.963,-0.0,0.01,0.07,0.07
9.973,-0.01,0.02,0.01,0.02
9.983,-0.01,0.02,-0.02,0.03
9.993,-0.01,0.03,-0.01,0.03
10.003,-0.03,0.03,0.04,0.06
10.013,-0.03,0.02,0.04,0.05
10.023,-0.01,0.02,0.03,0.04
10.033,-0.0,-0.0,-0.04,0.04
10.043,0.01,-0.01,-0.07,0.07
10.053,-0.02,0.02,0.04,0.05
10.063,-0.03,0.02,0.06,0.07
10.074,-0.0,0.01,0.02,0.03
10.084,-0.0,0.01,0.02,0.02
10.094,-0.01,0.0,-0.0,0.01
10.104,0.01,0.0,-0.02,0.03
10.114,0.02,-0.02,0.01,0.03
10.124,0.01,-0.01,0.03,0.03
10.134,0.0,-0.0,0.01,0.01
10.144,0.01,-0.01,-0.01,0.02
10.154,-0.01,0.02,0.0,0.02
10.164,-0.02,0.04,0.02,0.05
10.174,-0.05,0.04,0.01,0.06
10.184,-0.03,0.02,0.0,0.03
10.194,-0.01,0.01,-0.03,0.04
10.205,0.0,-0.01,-0.03,0.03
10.215,-0.02,0.0,-0.01,0.02
10.225,-0.02,0.02,0.02,0.03
10.235,-0.03,0.04,0.06,0.07
10.245,-0.03,0.03,0.05,0.07
10.255,-0.01,0.02,0.02,0.03
10.265,0.0,0.0,-0.04,0.04
10.275,0.02,-0.01,-0.09,0.09
10.285,0.04,-0.04,-0.06,0.08
10.295,-0.04,0.03,0.15,0.16
10.305,-0.04,0.05,0.08,0.1
10.315,0.03,-0.01,-0.05,0.06
10.325,-0.03,0.02,-0.03,0.05
10.335,-0.04,0.04,0.06,0.08
10.346,-0.02,0.04,0.06,0.08
10.356,-0.02,0.02,0.05,0.06
10.366,-0.01,0.02,0.01,0.02
10.376,0.01,0.01,-0.0,0.01
10.386,0.0,0.01,0.01,0.01
10.396,-0.0,0.0,-0.04,0.04
10.406,0.01,-0.02,-0.05,0.05
10.416,0.01,-0.0,-0.0,0.01
10.426,-0.01,0.01,0.02,0.03
10.436,-0.03,0.02,0.02,0.04
10.446,-0.03,0.03,-0.0,0.04
10.456,-0.01,0.01,-0.02,0.02
10.467,-0.01,0.01,0.01,0.02
10.477,-0.02,0.01,0.02,0.03
10.487,-0.02,0.01,0.02,0.03
10.497,-0.02,0.01,0.0,0.02
10.507,-0.02,0.01,0.01,0.03
10.517,-0.03,0.02,0.03,0.05
10.527,-0.02,0.02,0.05,0.06
10.537,-0.01,0.02,0.03,0.04
10.547,-0.01,0.02,0.02,0.03
10.557,-0.01,0.02,-0.01,0.03
10.567,-0.01,0.01,-0.01,0.02
10.577,-0.01,0.01,-0.04,0.04
10.587,-0.01,-0.01,-0.01,0.02
10.598,-0.03,0.01,-0.01,0.03
10.607,-0.01,0.01,0.01,0.02
10.618,-0.02,0.01,0.02,0.03
10.628,-0.02,0.01,0.02,0.03
10.638,-0.01,0.01,0.03,0.03
10.648,-0.01,0.01,0.02,0.02
10.658,-0.01,0.01,-0.01,0.02
10.668,-0.04,0.02,-0.05,0.07
10.678,-0.03,0.02,-0.01,0.04
10.688,-0.02,0.02,0.04,0.05
10.698,-0.0,0.0,0.01,0.01
10.708,0.01,-0.0,-0.01,0.02
10.718,0.0,0.0,-0.03,0.03
10.729,-0.02,0.01,-0.02,0.03
10.739,-0.04,0.01,0.02,0.04
10.749,-0.03,0.01,0.03,0.04
10.759,-0.0,-0.0,0.07,0.07
10.769,0.01,0.0,0.07,0.07
10.779,0.0,-0.01,0.02,0.02
10.789,0.02,-0.01,-0.05,0.06
10.799,0.02,-0.02,-0.04,0.05
10.809,0.0,-0.0,0.02,0.02
10.819,-0.0,-0.0,0.02,0.02
10.829,-0.02,0.02,0.03,0.04
10.839,-0.02,0.02,-0.04,0.05
10.849,-0.03,0.03,-0.03,0.05
10.859,-0.07,0.07,0.09,0.13
10.869,-0.04,0.04,0.07,0.09
10.88,0.0,0.0,-0.01,0.01
10.89,-0.02,0.01,-0.06,0.07
10.9,-0.02,-0.0,0.0,0.02
10.91,-0.02,0.01,0.06,0.07
10.92,-0.02,0.02,0.06,0.06
10.93,-0.02,0.02,0.03,0.04
10.94,-0.0,0.01,0.0,0.01
10.95,0.01,-0.01,-0.02,0.02
10.96,0.02,-0.02,-0.04,0.05
10.97,0.0,-0.01,-0.01,0.02
10.98,-0.01,-0.01,-0.0,0.01
10.99,-0.03,0.01,0.01,0.03
11.0,-0.01,0.01,-0.01,0.02
11.01,0.01,-0.01,-0.01,0.02
11.021,0.02,-0.0,0.03,0.03
11.031,0.02,-0.02,0.05,0.05
11.041,-0.02,0.0,-0.01,0.02
11.051,-0.03,0.01,-0.06,0.06
11.061,-0.03,0.02,-0.11,0.11
11.071,-0.08,0.04,0.06,0.1
11.081,-0.12,0.1,0.09,0.18
11.091,-0.04,0.05,0.05,0.08
11.101,0.04,-0.01,0.1,0.1
11.111,0.03,-0.01,0.06,0.07
11.121,0.02,-0.03,-0.0,0.03
11.131,0.01,-0.03,-0.01,0.04
11.141,-0.01,-0.0,0.06,0.06
11.151,-0.02,0.0,0.12,0.12
11.161,-0.01,0.0,0.05,0.05
11.172,0.01,0.02,-0.05,0.05
11.182,-0.02,0.04,-0.08,0.09
11.192,-0.01,0.04,-0.04,0.06
11.202,-0.04,0.04,0.02,0.06
11.212,-0.06,0.06,0.02,0.09
11.222,-0.06,0.04,-0.01,0.07
