time,ax,ay,az,atotal
0.003677,-0.0387,-0.0213,0.0408,0.06
0.009749,-0.0276,0.0151,0.2012,0.204
0.019858,0.0019,0.0315,0.151,0.154
0.029783,0.0034,-0.0091,0.2,0.2
0.039659,-0.0046,-0.0092,0.1581,0.158
0.049856,-0.0064,0.0084,0.1318,0.132
0.059833,-0.0099,0.0081,0.0827,0.084
0.070539,-0.0126,-0.0157,0.1246,0.126
0.088728,-0.0093,0.0082,0.1833,0.184
0.106272,-0.015,0.0271,0.2,0.202
0.107871,-0.0231,-0.0019,0.151,0.153
0.119826,-0.0193,-0.009,0.1162,0.118
0.120904,-0.0036,0.0016,0.1067,0.107
0.129694,0.0035,0.0001,0.1318,0.132
0.139807,0.0008,-0.0141,0.1665,0.167
0.14959,0.0078,-0.008,0.1952,0.196
0.159961,-0.0042,0.0135,0.1498,0.15
0.169706,-0.0233,0.0076,0.1306,0.133
0.18804,-0.0232,-0.0092,0.1474,0.149
0.205039,-0.0207,0.01,0.1426,0.144
0.20597,-0.011,0.0099,0.1354,0.136
0.22456,-0.0085,0.0075,0.1593,0.16
0.225383,0.0083,-0.0093,0.151,0.151
0.229743,-0.0061,-0.0093,0.139,0.139
0.23979,-0.0073,-0.0093,0.1426,0.143
0.249546,-0.0145,0.0015,0.1522,0.153
0.259952,-0.0121,0.0075,0.1581,0.159
0.280832,-0.0204,0.0099,0.1522,0.154
0.281761,-0.0167,0.0003,0.1534,0.154
0.289888,-0.0094,0.0027,0.1414,0.142
0.299678,-0.0069,0.011,0.1426,0.143
0.309588,-0.0009,-0.0081,0.1462,0.146
0.320396,0.0003,-0.0069,0.1689,0.169
0.329566,-0.0045,-0.0033,0.1534,0.153
0.339957,-0.0104,0.011,0.1462,0.147
0.349645,-0.0164,0.0086,0.1462,0.147
0.35981,-0.0187,0.0062,0.1438,0.145
0.371874,-0.0174,0.0026,0.1438,0.145
0.380647,-0.0101,0.0026,0.151,0.151
0.389647,-0.0005,-0.0022,0.1498,0.15
0.400316,0.0079,-0.0022,0.1546,0.155
0.409774,0.0007,0.0002,0.1498,0.15
0.419852,-0.0077,-0.0046,0.1438,0.144
0.429743,-0.0125,-0.0034,0.1474,0.148
0.439742,-0.0221,0.0062,0.145,0.147
0.449943,-0.0172,0.005,0.1438,0.145
0.459818,-0.0159,0.0002,0.145,0.146
0.47083,-0.0074,-0.0082,0.1486,0.149
0.481281,0.0058,-0.001,0.1569,0.157
0.491667,0.001,0.0002,0.1438,0.144
0.505886,0.0022,-0.001,0.1462,0.146
0.509823,-0.0002,0.0122,0.1593,0.16
0.521319,-0.0145,0.0038,0.1593,0.16
0.529847,-0.0122,0.0038,0.1438,0.144
0.540065,-0.0145,0.0038,0.1462,0.147
0.551678,-0.0098,0.0002,0.1402,0.141
0.559791,-0.005,-0.0046,0.1462,0.146
0.569767,-0.0026,-0.001,0.1569,0.157
0.579913,0.0046,-0.013,0.1557,0.156
0.59074,-0.0038,0.0002,0.1546,0.155
0.607574,-0.0062,-0.0082,0.151,0.151
0.609961,-0.0098,-0.0034,0.1605,0.161
0.619811,-0.0241,0.0074,0.145,0.147
0.629832,-0.0098,0.005,0.1522,0.153
0.639937,-0.018,-0.0022,0.139,0.14
0.651273,-0.0108,0.0074,0.1474,0.148
0.659918,0.0,-0.0106,0.1593,0.16
0.670622,-0.006,-0.0022,0.1557,0.156
0.679955,0.0024,-0.0046,0.1534,0.153
0.691127,-0.0072,-0.0046,0.1474,0.148
0.713336,-0.0131,0.0038,0.1414,0.142
0.716719,-0.0155,-0.0022,0.1462,0.147
0.720274,-0.0143,0.0074,0.1486,0.149
0.730619,-0.012,0.0014,0.1557,0.156
0.740056,-0.0084,0.0038,0.1426,0.143
0.750101,0.0,-0.001,0.1581,0.158
0.75979,0.0012,-0.0022,0.1569,0.157
0.769791,0.0024,-0.0022,0.1498,0.15
0.780164,-0.0084,-0.001,0.1474,0.148
0.789942,-0.0096,0.005,0.1546,0.155
0.799818,-0.0096,0.0014,0.1378,0.138
0.809733,-0.0084,-0.007,0.1402,0.141
0.820197,-0.0012,0.0038,0.1498,0.15
0.831823,-0.006,0.005,0.1534,0.154
0.839723,-0.0036,-0.0034,0.1462,0.146
0.850294,0.0024,-0.0034,0.1546,0.155
0.859685,-0.0084,-0.0022,0.151,0.151
0.87034,-0.006,-0.0058,0.1438,0.144
0.884272,-0.0084,0.0002,0.145,0.145
0.890534,-0.0084,0.0014,0.1486,0.149
0.905662,-0.0072,0.0086,0.1426,0.143
0.909871,-0.0108,0.0002,0.1474,0.148
0.920862,-0.0084,0.0074,0.1546,0.155
0.935488,0.0084,-0.0046,0.151,0.151
0.939977,0.0012,-0.001,0.1593,0.159
0.949796,-0.012,0.0002,0.1557,0.156
0.959667,-0.0131,-0.0058,0.1605,0.161
0.970586,-0.012,0.0074,0.151,0.152
0.98509,-0.0131,0.0014,0.1462,0.147
0.989848,-0.0143,0.005,0.1534,0.154
0.99984,-0.0072,0.0098,0.151,0.151
1.009739,0.0048,-0.0058,0.145,0.145
1.019901,-0.0048,0.0074,0.1605,0.161
1.030366,-0.006,-0.0034,0.1438,0.144
1.039709,-0.012,0.0002,0.1402,0.141
1.050435,-0.0072,-0.001,0.1474,0.148
1.060442,-0.006,0.0014,0.1522,0.152
1.070405,-0.0072,0.005,0.1426,0.143
1.085322,-0.0012,-0.001,0.1438,0.144
1.089747,-0.006,0.0038,0.1474,0.148
1.100951,-0.0096,0.0014,0.1557,0.156
1.109829,-0.0036,0.0014,0.1474,0.147
1.119782,-0.0096,-0.0094,0.151,0.152
1.132438,-0.0072,-0.0058,0.1486,0.149
1.139777,-0.0096,0.0062,0.1438,0.144
1.150207,-0.0072,0.0002,0.1462,0.146
1.166034,-0.0036,0.0086,0.1462,0.146
1.170633,-0.0072,0.0062,0.1414,0.142
1.190111,-0.0048,0.0026,0.1414,0.141
1.192929,-0.0072,-0.001,0.1474,0.148
1.20409,0.0,-0.0022,0.1462,0.146
1.219733,-0.0084,0.0002,0.151,0.151
1.221656,-0.0036,-0.0058,0.1522,0.152
1.234313,-0.0012,0.0038,0.151,0.151
1.239717,-0.0072,0.0074,0.145,0.145
1.250636,-0.012,0.0002,0.139,0.14
1.266443,-0.012,-0.007,0.151,0.152
1.270834,-0.0096,-0.001,0.1498,0.15
1.287046,-0.012,-0.001,0.1438,0.144
1.289935,-0.012,-0.0058,0.1438,0.144
1.302174,-0.0024,0.0062,0.1498,0.15
1.317361,-0.0036,-0.0106,0.145,0.145
1.320375,-0.0108,0.005,0.1474,0.148
1.332723,-0.0131,0.0014,0.1438,0.144
1.339976,-0.0084,0.0038,0.1426,0.143
1.349942,-0.0143,-0.0082,0.145,0.146
1.365743,-0.012,-0.0046,0.145,0.146
1.370909,-0.013,-0.001,0.1498,0.15
1.397175,0.0025,-0.0034,0.1438,0.144
1.399752,-0.0059,0.0026,0.1426,0.143
1.400935,-0.0082,-0.0034,0.1426,0.143
1.413777,-0.0071,0.0002,0.1366,0.137
1.420169,-0.0059,0.0038,0.1474,0.148
1.430011,-0.0154,-0.0022,0.1569,0.158
1.440254,-0.0023,-0.0034,0.1402,0.14
1.450137,-0.0059,0.0038,0.1426,0.143
1.463328,-0.0071,-0.0022,0.1593,0.16
1.470051,-0.0047,-0.0058,0.151,0.151
1.486978,-0.0059,-0.001,0.1306,0.131
1.497227,0.0001,-0.0034,0.1474,0.147
1.499899,0.0001,-0.0058,0.1581,0.158
1.510083,-0.0035,0.0038,0.1486,0.149
1.519984,-0.0118,0.0026,0.1438,0.144
1.530223,-0.0082,0.0002,0.139,0.139
1.542462,-0.0142,0.005,0.1438,0.145
1.550348,-0.0011,-0.001,0.145,0.145
1.559837,-0.0071,-0.0046,0.1474,0.148
1.569738,0.0013,-0.0058,0.1462,0.146
1.580356,0.0001,-0.0082,0.1402,0.14
1.60031,0.0013,0.0086,0.1498,0.15
1.602224,-0.0082,-0.0094,0.139,0.14
1.614868,-0.0023,-0.0046,0.139,0.139
1.620124,-0.0154,0.0062,0.1474,0.148
1.63073,-0.0166,0.0062,0.1522,0.153
1.645386,-0.0082,-0.0034,0.1498,0.15
1.650487,-0.0047,-0.0034,0.1498,0.15
1.660056,-0.0059,-0.0022,0.1486,0.149
1.669762,0.0013,-0.0046,0.1498,0.15
1.680123,-0.0011,-0.001,0.139,0.139
1.700551,-0.0106,-0.0034,0.139,0.139
1.702472,-0.0082,-0.0058,0.1486,0.149
1.715729,-0.0059,-0.0118,0.1414,0.142
1.720021,-0.0082,0.0002,0.1438,0.144
1.731133,0.0013,0.0026,0.151,0.151
1.74682,-0.0047,0.0074,0.1486,0.149
1.749832,-0.0035,-0.0034,0.1426,0.143
1.759869,-0.0023,-0.0058,0.1438,0.144
1.770029,-0.0023,0.0026,0.1462,0.146
1.780476,-0.0059,0.0026,0.1402,0.14
1.798065,-0.0071,-0.001,0.139,0.139
1.800454,-0.0142,0.005,0.1462,0.147
1.812889,-0.0035,0.0014,0.1462,0.146
1.820215,-0.0082,0.0086,0.1486,0.149
1.831171,0.0025,0.0098,0.1534,0.154
1.844015,0.0001,0.005,0.1414,0.141
1.85169,-0.0035,0.005,0.145,0.145
1.860097,-0.0035,0.0026,0.1498,0.15
1.875783,-0.0154,0.005,0.1378,0.139
1.884049,-0.0118,0.0062,0.139,0.14
1.897964,-0.0094,0.0002,0.1366,0.137
1.899778,-0.0106,-0.0094,0.1486,0.149
1.914949,0.0013,0.0014,0.1522,0.152
1.931399,-0.0094,-0.0094,0.151,0.152
1.932875,-0.0082,-0.0082,0.145,0.145
1.948162,-0.0094,0.0002,0.1498,0.15
1.950039,-0.0059,0.0062,0.145,0.145
1.959885,-0.0047,0.0038,0.1474,0.147
1.97469,-0.013,0.0026,0.145,0.146
1.98033,-0.0106,-0.0022,0.1474,0.148
1.997756,-0.0071,0.005,0.1378,0.138
1.999913,-0.0011,0.0038,0.151,0.151
2.009861,-0.0071,-0.0034,0.1486,0.149
2.020608,-0.0071,-0.0058,0.1569,0.157
2.029874,-0.0035,0.0038,0.1498,0.15
2.039713,-0.0106,0.0026,0.1498,0.15
2.049844,-0.0082,-0.0022,0.1462,0.146
2.060154,-0.013,-0.0058,0.1366,0.137
2.073677,-0.013,0.0002,0.1534,0.154
2.079857,-0.0071,-0.0022,0.1557,0.156
2.095034,-0.0106,-0.0022,0.1462,0.147
2.10056,-0.0142,0.0014,0.1486,0.149
2.109938,-0.0047,-0.0082,0.1486,0.149
2.122843,-0.0059,-0.0034,0.1378,0.138
2.129919,-0.0094,0.0062,0.1474,0.148
2.13999,-0.0106,0.0062,0.145,0.145
2.150502,-0.0142,0.0086,0.1402,0.141
2.159951,-0.0106,0.0038,0.139,0.139
2.173058,-0.0094,-0.0022,0.1557,0.156
2.179922,-0.0035,0.0026,0.1486,0.149
2.196306,-0.0011,0.0038,0.145,0.145
2.200427,0.0013,-0.001,0.1438,0.144
2.210157,-0.0082,0.0038,0.1474,0.148
2.219938,-0.0106,0.0014,0.145,0.145
2.230085,-0.0106,0.0026,0.1402,0.141
2.240259,-0.0166,0.0062,0.1366,0.138
2.251883,-0.0142,-0.0022,0.1534,0.154
2.259921,-0.0094,-0.0082,0.139,0.14
2.269735,-0.0035,-0.0022,0.151,0.151
2.279988,-0.0023,-0.0046,0.1438,0.144
2.290311,0.0037,0.0002,0.1438,0.144
2.30876,-0.0071,-0.0058,0.1534,0.154
2.311032,-0.0094,0.0026,0.1438,0.144
2.323958,-0.0094,0.0026,0.1462,0.147
2.330442,-0.0071,0.0002,0.1569,0.157
2.33981,-0.0035,0.005,0.1486,0.149
2.350705,-0.0059,0.0098,0.1438,0.144
2.359977,0.0001,-0.0046,0.1474,0.147
2.370321,0.0013,-0.0022,0.1474,0.147
2.379963,-0.0047,0.0062,0.1557,0.156
2.389892,-0.0166,0.0026,0.1486,0.15
2.413976,-0.0166,0.0062,0.1486,0.15
2.416334,-0.0071,0.0002,0.145,0.145
2.419951,-0.0094,-0.0034,0.139,0.139
2.430773,-0.0047,0.005,0.1438,0.144
2.440148,-0.0047,0.0014,0.1486,0.149
2.450453,-0.0011,-0.0058,0.1522,0.152
2.46037,-0.0082,0.0014,0.1557,0.156
2.470593,-0.0011,-0.0106,0.151,0.151
2.480151,-0.0178,0.0098,0.1402,0.142
2.490241,-0.0142,0.0038,0.1498,0.15
2.511748,-0.0082,-0.0034,0.1474,0.148
2.514453,-0.0142,0.0098,0.1402,0.141
2.520066,-0.0094,0.0014,0.151,0.151
2.531771,-0.0082,0.0026,0.1486,0.149
2.540351,-0.0035,0.0086,0.1557,0.156
2.550227,-0.0059,-0.0046,0.1557,0.156
2.560564,-0.0082,-0.001,0.1426,0.143
2.570479,-0.0059,0.0086,0.1378,0.138
2.589108,-0.0118,0.0014,0.1426,0.143
2.592312,-0.013,-0.007,0.145,0.146
2.618745,-0.0059,0.005,0.1474,0.148
2.62131,-0.0094,-0.0034,0.139,0.139
2.622433,-0.0047,0.0026,0.1534,0.153
2.634915,-0.0035,0.0014,0.1498,0.15
2.639822,-0.0023,0.0038,0.1342,0.134
2.653733,-0.013,0.0026,0.1438,0.144
2.66012,-0.013,0.0098,0.1438,0.145
2.670956,-0.0118,-0.001,0.1462,0.147
2.685854,-0.0059,0.0014,0.151,0.151
2.690274,-0.0118,0.0038,0.1426,0.143
2.708733,-0.0035,0.0026,0.1498,0.15
2.711842,-0.0011,-0.0034,0.1486,0.149
2.719739,-0.0035,-0.0022,0.1569,0.157
2.730118,-0.0047,0.0014,0.151,0.151
2.739935,-0.0106,0.0014,0.1426,0.143
2.750267,-0.0082,0.0014,0.1378,0.138
2.760445,-0.0106,0.005,0.1498,0.15
2.769946,-0.013,0.0086,0.1569,0.158
2.783793,-0.0118,0.0062,0.145,0.146
2.79095,-0.0071,0.0026,0.1462,0.146
2.814453,-0.0059,0.0026,0.145,0.145
2.816362,-0.0023,-0.0022,0.1426,0.143
2.820399,-0.013,0.0002,0.1474,0.148
2.831799,-0.0035,0.0074,0.145,0.145
2.840708,-0.0071,-0.0022,0.1486,0.149
2.849977,-0.0071,0.0026,0.1426,0.143
2.862684,-0.0142,0.0038,0.1546,0.155
2.870363,-0.0106,-0.0022,0.1534,0.154
2.880615,-0.0011,0.0002,0.1522,0.152
2.890473,-0.0035,-0.0022,0.1498,0.15
2.900235,-0.0047,0.0014,0.1546,0.155
2.921714,-0.013,0.011,0.1557,0.157
2.923616,-0.0094,-0.0022,0.1426,0.143
2.933771,-0.019,0.011,0.1581,0.16
2.939982,-0.0082,0.0014,0.151,0.151
2.949883,-0.0071,0.0074,0.1474,0.148
2.96101,-0.0118,-0.001,0.1474,0.148
2.969915,-0.0047,0.0038,0.1438,0.144
2.980331,0.0001,0.0062,0.1522,0.152
2.989829,0.0013,-0.0046,0.139,0.139
3.000336,-0.0202,-0.0118,0.1534,0.155
3.025763,-0.013,0.0038,0.1462,0.147
3.02791,-0.0082,0.0026,0.1522,0.152
3.030194,-0.0154,0.005,0.1498,0.151
3.040566,0.0013,0.0038,0.1414,0.141
3.049921,-0.0094,0.0002,0.1474,0.148
3.060235,-0.0011,-0.0034,0.1557,0.156
3.070188,-0.0094,-0.0046,0.145,0.145
3.081829,-0.0106,0.0074,0.1462,0.147
3.100417,-0.013,-0.0034,0.1593,0.16
3.102785,-0.0177,0.005,0.1378,0.139
3.129702,-0.0128,0.0026,0.1342,0.135
3.131768,-0.0056,0.0062,0.1462,0.146
3.132789,-0.0021,-0.001,0.145,0.145
3.140094,0.0015,-0.0094,0.1498,0.15
3.149895,-0.0056,-0.001,0.145,0.145
3.1607,-0.0128,0.0074,0.151,0.152
3.169824,-0.008,0.0002,0.1486,0.149
3.180299,-0.0116,0.0086,0.145,0.146
3.195969,-0.0104,0.0002,0.1534,0.154
3.200061,-0.0116,0.005,0.1342,0.135
3.223323,-0.0092,-0.0034,0.139,0.139
3.225625,-0.0044,0.0062,0.1534,0.154
3.230082,-0.0068,-0.001,0.151,0.151
3.241169,-0.0032,0.0062,0.151,0.151
3.249988,-0.0092,0.0038,0.1486,0.149
3.26088,-0.0176,-0.0022,0.1522,0.153
3.269902,-0.0187,0.0026,0.1534,0.155
3.279876,-0.0138,0.0038,0.145,0.146
3.300123,-0.0077,0.0002,0.1474,0.148
3.301884,-0.0053,-0.0058,0.1546,0.155
3.316069,-0.0065,0.0014,0.1546,0.155
3.3198,-0.0101,-0.0022,0.1569,0.157
3.332044,-0.0125,-0.0022,0.1462,0.147
3.344204,-0.0101,0.0097,0.1498,0.15
3.350006,-0.0112,0.0121,0.1462,0.147
3.359905,-0.004,0.0025,0.145,0.145
3.36985,-0.0159,0.0073,0.1558,0.157
3.380565,-0.0051,-0.0011,0.151,0.151
3.400387,-0.0039,0.0061,0.1522,0.152
3.4025,-0.0087,0.0073,0.1426,0.143
3.411105,-0.0015,0.0013,0.1474,0.147
3.420076,-0.0063,-0.0011,0.1486,0.149
3.429991,-0.0123,-0.0047,0.1462,0.147
3.439868,-0.0123,0.0061,0.1498,0.15
3.449894,-0.0111,0.0085,0.1498,0.15
3.45983,-0.0206,0.0001,0.1426,0.144
3.475816,-0.0061,0.0025,0.145,0.145
3.48076,-0.0049,-0.0023,0.1462,0.146
3.499835,-0.0037,0.0036,0.151,0.151
3.502956,-0.0049,-0.0023,0.1522,0.152
3.511307,-0.0049,0.0025,0.1438,0.144
3.523115,-0.0097,-0.0011,0.1486,0.149
3.530032,-0.0085,0.0036,0.1474,0.148
3.5401,-0.0133,0.006,0.145,0.146
3.549842,-0.0121,0.0013,0.1534,0.154
3.559946,-0.0013,-0.0059,0.1641,0.164
3.575306,-0.0061,0.0025,0.151,0.151
3.580825,-0.0109,0.0036,0.1474,0.148
3.598917,-0.0013,-0.0059,0.1414,0.142
3.601367,-0.0085,-0.0035,0.1558,0.156
3.61112,-0.0085,-0.0095,0.151,0.152
3.622798,-0.0169,0.0036,0.1462,0.147
3.630021,-0.0085,0.0048,0.1438,0.144
3.639998,-0.0025,-0.0011,0.1498,0.15
3.64978,-0.0097,0.0001,0.151,0.151
3.659875,-0.0073,-0.0023,0.1546,0.155
3.675625,-0.0013,0.0072,0.1522,0.152
3.680873,-0.0085,-0.0023,0.1534,0.154
3.700342,-0.0133,-0.0011,0.1581,0.159
3.703127,-0.0109,0.0036,0.1558,0.156
3.709779,-0.0097,0.012,0.1534,0.154
3.720336,-0.0133,0.006,0.1474,0.148
3.729838,-0.0121,0.0025,0.1522,0.153
3.739955,-0.0049,0.0025,0.1498,0.15
3.750635,-0.0049,0.0048,0.145,0.145
3.760029,-0.0097,-0.0059,0.1486,0.149
3.773933,-0.0145,-0.0023,0.1522,0.153
3.780286,-0.0133,0.0001,0.1462,0.147
3.802986,-0.0025,-0.0023,0.145,0.145
3.805058,-0.0037,-0.0083,0.1474,0.148
3.809877,-0.0025,-0.0095,0.1593,0.16
3.820016,-0.0049,0.0013,0.1534,0.153
3.829897,-0.0049,-0.0035,0.1486,0.149
3.840076,-0.0085,-0.0059,0.1581,0.158
3.850495,-0.0145,0.0001,0.1414,0.142
3.860526,-0.0013,0.0025,0.1522,0.152
3.873696,-0.0109,0.006,0.1534,0.154
3.880111,-0.0157,-0.0011,0.1426,0.143
3.903259,-0.0085,0.006,0.1546,0.155
3.90537,-0.0025,-0.0095,0.1569,0.157
3.910027,-0.0085,-0.0011,0.1522,0.152
3.919978,-0.0073,-0.0083,0.1378,0.138
3.929818,-0.0085,0.0001,0.1534,0.154
3.940316,-0.0157,0.0013,0.1546,0.155
3.952884,-0.0049,0.0013,0.1534,0.153
3.960018,-0.0049,-0.0011,0.1558,0.156
3.970517,0.0011,-0.0071,0.1438,0.144
3.979994,-0.0061,-0.0047,0.1534,0.154
3.990124,-0.0001,0.0013,0.1534,0.153
4.014461,-0.0049,-0.0023,0.1617,0.162
4.016585,-0.0085,-0.0011,0.1522,0.152
4.020094,-0.0049,-0.0011,0.1462,0.146
4.029932,-0.0085,0.0036,0.1462,0.146
4.040057,-0.0109,0.0001,0.1462,0.147
4.05048,-0.0109,-0.0059,0.1438,0.144
4.059936,-0.0013,-0.0011,0.1522,0.152
4.070129,0.0035,-0.0023,0.1593,0.159
4.080268,-0.0061,-0.0035,0.1534,0.154
4.09029,-0.0061,-0.0047,0.1581,0.158
4.119035,-0.0025,0.0036,0.1534,0.153
4.122175,-0.0013,-0.0059,0.1498,0.15
4.123787,-0.0109,-0.0071,0.1534,0.154
4.130083,-0.0073,0.0025,0.1558,0.156
4.140165,-0.0025,-0.0011,0.1534,0.153
4.150664,-0.0013,0.0001,0.151,0.151
4.160021,-0.0073,0.006,0.1462,0.146
4.16987,-0.0073,0.006,0.1569,0.157
4.185804,-0.0085,0.0001,0.1522,0.152
4.190829,-0.0025,-0.0035,0.1498,0.15
4.210119,-0.0121,0.0048,0.1486,0.149
4.21245,-0.0097,0.0013,0.1498,0.15
4.226114,-0.0001,0.0144,0.1486,0.149
4.241585,-0.0061,0.0001,0.1558,0.156
4.243368,0.0035,0.006,0.1569,0.157
4.25378,-0.0013,-0.0035,0.1534,0.153
4.2597,-0.0037,-0.0047,0.1522,0.152
4.269847,-0.0097,0.0036,0.151,0.151
4.284223,-0.0061,0.0048,0.1558,0.156
4.290007,-0.0037,0.0025,0.1498,0.15
4.30724,-0.0061,0.0013,0.1546,0.155
4.310545,-0.0025,-0.0011,0.1498,0.15
4.323469,0.0071,0.0084,0.1534,0.154
4.339282,-0.0061,-0.0071,0.1486,0.149
4.340975,-0.0073,-0.0059,0.1593,0.16
4.352712,-0.0121,0.0025,0.1486,0.149
4.36016,-0.0085,0.0048,0.1462,0.147
4.369872,-0.0133,0.0013,0.1546,0.155
4.383683,-0.0061,-0.0047,0.1569,0.157
4.390272,-0.0025,-0.0011,0.1522,0.152
4.404263,-0.0049,-0.0023,0.1498,0.15
4.409799,-0.0049,-0.0047,0.1558,0.156
4.420322,-0.0049,-0.0023,0.1617,0.162
4.435703,-0.0049,-0.0083,0.1522,0.152
4.440077,-0.0097,0.0036,0.151,0.151
4.44991,-0.0133,-0.0047,0.1617,0.162
4.459977,-0.0025,-0.0035,0.151,0.151
4.469796,-0.0061,0.0036,0.1605,0.161
4.483374,-0.0001,0.0001,0.1522,0.152
4.489972,0.0011,-0.0059,0.1593,0.159
4.504742,-0.0073,0.0001,0.1402,0.14
4.520195,-0.0181,-0.0035,0.1486,0.15
4.521716,-0.0049,0.0001,0.1462,0.146
4.536489,-0.0145,-0.0011,0.1426,0.143
4.539689,-0.0109,0.0025,0.1558,0.156
4.552383,-0.0049,-0.0083,0.1593,0.16
4.560763,-0.0049,0.0025,0.1593,0.159
4.56965,-0.0025,-0.0083,0.1486,0.149
4.579635,0.0107,0.0036,-0.1184,0.119
4.589532,-0.079,0.0383,0.3557,0.366
4.599924,-0.0165,-0.0251,0.0636,0.07
4.611155,-0.0092,-0.0776,0.4838,0.49
4.619593,0.0423,0.0039,0.564,0.566
4.629526,0.0879,0.0627,-0.1256,0.166
4.639516,-0.026,0.0016,-0.0537,0.06
4.650818,-0.0552,-0.0562,-0.1064,0.132
