time,ax,ay,az,atotal
0.0,0.18,-0.02,0.15,0.24
0.01,0.18,-0.0,0.01,0.18
0.02,0.09,-0.06,-0.05,0.12
0.03,-0.01,-0.11,-0.01,0.11
0.04,-0.05,-0.06,0.08,0.11
0.05,-0.0,0.0,0.09,0.09
0.06,0.09,-0.03,0.02,0.1
0.071,0.13,-0.05,0.01,0.14
0.081,0.07,-0.03,0.05,0.09
0.091,0.01,-0.03,0.01,0.03
0.101,-0.03,-0.04,-0.01,0.05
0.111,-0.07,-0.01,0.05,0.09
0.121,-0.05,0.02,0.05,0.08
0.131,0.01,-0.01,0.02,0.03
0.141,0.02,-0.02,0.01,0.03
0.151,-0.01,-0.0,0.02,0.03
0.161,0.02,-0.02,-0.03,0.04
0.171,0.05,-0.06,-0.11,0.13
0.181,0.05,-0.07,-0.09,0.12
0.191,0.02,-0.02,-0.03,0.04
0.202,-0.01,0.04,0.04,0.06
0.212,0.05,0.04,0.09,0.11
0.222,0.07,0.04,0.17,0.19
0.232,0.05,0.09,0.06,0.12
0.242,0.02,0.06,-0.04,0.07
0.252,0.04,-0.02,-0.06,0.08
0.262,0.03,-0.05,-0.05,0.08
0.272,0.01,0.01,0.03,0.03
0.282,-0.02,0.06,0.01,0.06
0.292,-0.04,0.06,0.01,0.07
0.302,0.05,0.01,0.02,0.06
0.312,0.09,0.0,-0.04,0.1
0.322,-0.0,0.03,0.05,0.06
0.333,-0.05,0.05,-0.01,0.07
0.342,0.02,0.02,-0.05,0.06
0.353,0.11,-0.01,-0.0,0.11
0.363,0.13,0.04,0.05,0.14
0.373,0.08,0.1,0.11,0.16
0.383,0.07,0.07,0.12,0.16
0.393,0.08,-0.02,0.1,0.13
0.403,0.07,-0.06,0.06,0.11
0.413,0.03,-0.06,0.03,0.08
0.423,-0.05,-0.07,-0.08,0.12
0.433,-0.08,-0.07,-0.1,0.15
0.443,-0.05,-0.07,-0.0,0.09
0.453,0.04,-0.02,-0.01,0.04
0.463,0.08,0.04,-0.02,0.09
0.474,0.02,0.06,0.03,0.07
0.484,0.0,0.02,0.03,0.04
0.494,0.02,0.0,-0.05,0.06
0.504,0.02,0.02,-0.09,0.1
0.514,-0.08,0.01,0.04,0.09
0.524,-0.07,0.01,0.05,0.09
0.534,-0.01,0.02,-0.0,0.02
0.544,0.07,0.04,-0.01,0.08
0.554,0.07,0.04,0.04,0.09
0.564,0.06,0.03,0.03,0.08
0.574,0.07,0.01,0.02,0.07
0.584,0.08,-0.01,0.09,0.12
0.594,0.08,0.05,0.12,0.16
0.605,0.08,0.04,0.04,0.1
0.614,0.06,-0.01,-0.03,0.07
0.625,0.03,-0.03,-0.04,0.06
0.635,-0.01,-0.01,-0.03,0.03
0.645,-0.01,0.01,-0.04,0.05
0.655,0.03,0.01,-0.05,0.06
0.665,0.04,0.02,-0.02,0.05
0.675,0.04,0.04,0.04,0.07
0.685,0.05,0.05,0.02,0.07
0.695,0.06,0.02,-0.06,0.09
0.705,0.01,-0.01,-0.01,0.02
0.715,-0.05,0.0,0.08,0.1
0.725,0.0,-0.0,0.06,0.06
0.735,0.04,-0.02,-0.08,0.1
0.745,0.02,-0.03,-0.04,0.05
0.755,-0.01,-0.02,0.06,0.07
0.765,0.01,-0.03,0.07,0.08
0.776,0.07,-0.01,0.07,0.1
0.786,0.11,0.01,0.05,0.12
0.796,0.13,0.02,0.03,0.13
0.806,0.14,0.02,0.05,0.15
0.816,0.09,0.0,-0.02,0.1
0.826,0.01,-0.02,-0.07,0.07
0.836,-0.08,-0.01,-0.01,0.08
0.846,-0.09,0.04,0.07,0.12
0.856,-0.05,0.09,0.08,0.13
0.866,0.01,0.08,0.05,0.09
0.877,0.03,0.02,0.04,0.06
0.887,0.04,-0.03,0.02,0.06
0.897,0.04,-0.09,0.01,0.09
0.907,0.05,-0.12,0.04,0.14
0.917,0.08,-0.13,-0.01,0.16
0.927,0.11,-0.13,-0.08,0.18
0.937,0.04,-0.13,-0.01,0.13
0.947,-0.02,-0.07,0.04,0.08
0.957,0.02,0.01,0.07,0.08
0.967,0.03,0.04,0.07,0.08
0.977,0.01,0.06,0.07,0.1
0.987,-0.02,0.08,0.05,0.09
0.997,-0.02,0.08,-0.01,0.08
1.007,0.02,0.06,-0.09,0.11
1.017,-0.02,0.04,-0.1,0.11
1.028,-0.03,0.05,-0.06,0.09
1.038,-0.02,0.08,-0.04,0.09
1.048,-0.02,0.1,-0.07,0.13
1.058,-0.01,0.11,-0.07,0.13
1.068,-0.0,0.07,0.03,0.07
1.078,-0.02,0.03,0.11,0.11
1.088,-0.02,0.02,-0.01,0.03
1.098,0.02,-0.03,-0.09,0.09
1.108,0.04,-0.04,-0.07,0.09
1.118,0.02,-0.05,-0.05,0.07
1.128,-0.02,-0.02,-0.02,0.04
1.138,0.03,0.06,0.02,0.07
1.148,0.08,0.08,0.05,0.12
1.158,0.07,0.07,0.04,0.11
1.169,0.06,0.08,0.02,0.1
1.179,0.09,0.05,0.02,0.1
1.189,0.09,0.01,0.01,0.09
1.199,0.07,-0.01,0.01,0.07
1.209,0.09,0.02,0.04,0.1
1.219,0.13,0.06,0.03,0.14
1.229,0.14,0.04,0.0,0.15
1.239,0.1,0.02,-0.01,0.1
1.249,0.04,0.01,-0.02,0.05
1.259,0.02,0.02,0.05,0.06
1.269,0.02,0.05,0.06,0.08
1.279,0.05,0.07,0.0,0.08
1.289,0.09,0.06,0.01,0.11
1.299,0.06,0.06,0.06,0.11
1.31,0.02,0.05,0.06,0.08
1.319,-0.01,0.02,0.01,0.02
1.33,-0.01,-0.02,-0.05,0.05
1.34,-0.04,-0.06,-0.09,0.12
1.35,-0.08,-0.09,-0.05,0.13
1.36,-0.08,-0.05,-0.01,0.09
1.37,-0.01,-0.01,-0.0,0.02
1.38,-0.0,0.0,0.05,0.05
1.39,-0.01,0.0,0.08,0.08
1.4,0.05,-0.01,0.03,0.06
1.41,0.05,-0.05,-0.08,0.11
1.42,-0.01,-0.1,-0.06,0.12
1.43,-0.06,-0.12,0.0,0.13
1.44,-0.04,-0.08,-0.02,0.09
1.451,0.01,-0.06,0.01,0.06
1.461,-0.01,-0.04,0.06,0.07
1.471,0.01,-0.01,-0.01,0.02
1.481,0.03,-0.02,0.02,0.04
1.491,0.01,0.02,0.14,0.14
1.501,0.02,0.08,0.13,0.15
1.511,0.05,0.07,0.1,0.13
1.521,0.1,0.07,0.07,0.14
1.531,0.09,0.05,0.04,0.11
1.541,0.04,0.0,-0.0,0.04
1.551,0.02,-0.02,-0.04,0.05
1.562,0.05,-0.03,-0.04,0.07
1.572,0.08,-0.02,-0.05,0.09
1.582,0.09,-0.01,-0.09,0.13
1.592,0.11,0.02,-0.06,0.13
1.602,0.13,0.03,-0.05,0.14
1.612,0.1,0.05,-0.04,0.12
1.622,0.03,0.07,0.02,0.08
1.632,-0.04,0.07,0.06,0.1
1.642,-0.03,0.05,0.04,0.07
1.652,-0.01,0.02,0.06,0.06
1.662,0.01,0.01,0.04,0.05
1.672,0.03,-0.02,0.05,0.06
1.682,0.02,-0.05,0.1,0.11
1.692,0.05,-0.04,0.08,0.1
1.703,0.08,-0.08,0.02,0.11
1.713,0.06,-0.11,-0.05,0.13
1.723,-0.03,-0.1,-0.02,0.1
1.733,-0.08,-0.06,-0.0,0.1
1.743,-0.03,-0.03,-0.03,0.05
1.753,-0.02,-0.02,0.03,0.04
1.763,-0.01,0.03,0.08,0.08
1.773,0.08,0.02,0.06,0.1
1.783,0.11,0.0,0.03,0.12
1.793,0.04,0.01,0.04,0.06
1.803,-0.06,-0.02,0.06,0.09
1.813,-0.04,-0.03,0.02,0.05
1.823,0.04,-0.02,-0.02,0.05
1.833,0.07,-0.0,-0.05,0.09
1.844,0.05,0.04,-0.02,0.07
1.854,0.05,0.08,0.03,0.1
1.864,0.09,0.08,0.02,0.12
1.874,0.1,0.06,-0.05,0.13
1.884,0.07,0.06,-0.04,0.1
1.894,0.04,0.07,-0.02,0.08
1.904,0.01,0.07,-0.01,0.07
1.914,0.02,0.05,-0.01,0.06
1.924,0.03,0.07,0.05,0.09
1.934,0.07,0.04,0.08,0.11
1.944,0.09,0.04,0.02,0.11
1.954,0.13,0.06,-0.01,0.14
1.964,0.15,0.02,-0.08,0.18
1.974,0.09,-0.02,-0.05,0.1
1.984,0.01,-0.01,-0.02,0.02
1.995,-0.07,0.01,0.03,0.07
2.005,-0.02,0.03,0.07,0.08
2.015,0.06,0.04,0.02,0.08
2.025,0.08,0.01,-0.03,0.09
2.035,0.05,-0.03,-0.02,0.06
2.045,-0.03,-0.06,-0.01,0.07
2.055,-0.06,-0.08,-0.05,0.12
2.065,-0.04,-0.08,-0.07,0.11
2.075,-0.02,-0.08,0.01,0.09
2.085,0.0,-0.05,0.06,0.07
2.095,0.05,-0.01,0.02,0.06
2.105,0.05,-0.0,0.07,0.09
2.116,0.04,0.02,0.09,0.11
2.126,-0.01,0.01,0.08,0.08
2.136,-0.05,-0.03,0.06,0.09
2.146,-0.06,-0.03,0.05,0.09
2.156,-0.03,-0.03,0.03,0.06
2.166,0.02,-0.03,-0.05,0.07
2.176,0.05,-0.03,-0.07,0.09
2.186,0.05,-0.02,-0.05,0.07
2.196,0.1,-0.01,-0.12,0.16
2.206,0.06,-0.03,-0.13,0.14
2.216,0.02,0.0,-0.07,0.07
2.226,0.02,0.03,-0.02,0.04
2.236,0.05,0.02,0.05,0.07
2.246,0.03,0.05,0.13,0.14
2.256,0.11,0.06,0.08,0.14
2.267,0.07,0.05,0.07,0.11
2.277,0.06,0.09,0.14,0.18
2.287,0.03,0.07,0.1,0.12
2.297,0.02,0.03,0.1,0.11
2.307,0.07,0.0,0.08,0.11
2.317,0.09,-0.04,0.0,0.1
2.327,0.07,-0.05,-0.08,0.11
2.337,-0.02,-0.03,-0.04,0.06
2.347,-0.06,-0.0,-0.01,0.06
2.357,-0.04,0.02,0.02,0.05
2.367,0.01,0.05,0.04,0.06
2.377,0.07,0.04,0.01,0.08
2.387,0.1,0.01,0.02,0.1
2.398,0.11,-0.0,0.01,0.11
2.407,0.07,-0.01,-0.03,0.08
2.418,0.01,-0.02,-0.01,0.03
2.428,-0.06,-0.04,0.01,0.07
2.438,-0.05,-0.04,0.03,0.08
2.448,0.02,-0.03,0.06,0.07
2.458,0.12,-0.03,0.04,0.13
2.468,0.14,-0.03,0.02,0.14
2.478,0.11,-0.02,0.02,0.12
2.488,0.09,0.01,0.03,0.1
2.498,0.08,0.03,0.0,0.08
2.508,0.06,0.05,0.02,0.09
2.518,0.05,0.07,0.01,0.09
2.529,0.04,0.05,-0.04,0.07
2.539,0.04,0.04,-0.04,0.07
2.549,-0.06,0.03,-0.01,0.06
2.559,-0.08,0.03,-0.04,0.09
2.569,-0.0,0.05,-0.02,0.05
2.579,-0.03,0.08,0.04,0.09
2.589,-0.06,0.04,0.06,0.1
2.599,-0.03,0.01,0.04,0.05
2.609,0.03,0.01,-0.02,0.04
2.619,0.03,-0.01,-0.08,0.09
2.629,-0.02,-0.05,-0.07,0.09
2.639,-0.02,-0.05,-0.09,0.11
2.649,0.02,-0.04,-0.11,0.12
2.659,0.0,-0.02,-0.04,0.05
2.67,-0.01,0.02,0.05,0.06
2.68,0.04,0.07,0.1,0.12
2.69,0.09,0.07,0.1,0.15
2.7,0.1,0.02,0.05,0.11
2.71,0.03,-0.04,0.05,0.07
2.72,-0.01,-0.04,-0.03,0.05
2.73,0.01,-0.03,-0.03,0.05
2.74,0.07,-0.0,-0.03,0.08
2.75,0.09,0.04,-0.03,0.1
2.76,0.11,0.04,-0.01,0.11
2.77,0.14,0.05,-0.01,0.14
2.78,0.08,0.07,0.11,0.15
2.79,-0.01,0.1,0.09,0.14
2.801,-0.01,0.05,0.11,0.12
2.811,0.08,0.02,0.1,0.13
2.821,0.11,0.04,0.07,0.14
2.831,0.06,0.04,0.05,0.09
2.841,0.03,-0.02,0.03,0.05
2.851,0.07,-0.08,0.0,0.1
2.861,0.14,-0.06,-0.12,0.2
2.871,0.08,-0.07,-0.06,0.12
2.881,0.01,-0.03,0.03,0.04
2.891,-0.02,0.01,-0.06,0.06
2.901,-0.0,-0.04,-0.02,0.05
2.911,0.02,-0.04,0.03,0.05
2.921,-0.04,0.02,0.05,0.06
2.931,-0.07,0.03,0.04,0.08
2.941,-0.04,0.01,0.03,0.05
2.952,0.02,-0.01,0.04,0.04
2.962,0.05,0.02,0.01,0.05
2.972,-0.01,-0.04,-0.06,0.07
2.982,-0.04,-0.1,-0.11,0.15
2.992,-0.04,-0.07,-0.04,0.09
3.002,-0.02,-0.0,-0.0,0.02
3.012,-0.02,0.04,0.0,0.05
3.022,0.02,0.06,0.04,0.07
3.032,0.07,0.08,0.05,0.12
3.042,0.01,0.08,0.05,0.09
3.052,-0.03,0.04,-0.05,0.07
3.062,0.01,-0.03,-0.08,0.09
3.072,0.04,-0.04,-0.01,0.05
3.083,0.03,0.04,0.0,0.06
3.093,0.04,0.07,0.04,0.09
3.103,0.08,0.03,0.07,0.12
3.113,0.11,-0.0,0.05,0.12
3.123,0.09,0.02,0.01,0.09
3.133,0.0,-0.01,-0.02,0.02
3.143,0.02,-0.03,0.01,0.04
3.153,0.11,0.0,0.06,0.13
3.163,0.16,0.04,0.07,0.18
3.173,0.16,0.07,0.06,0.19
3.183,0.13,0.07,0.06,0.16
3.193,0.07,0.02,0.06,0.09
3.203,0.02,-0.04,-0.09,0.1
3.213,-0.08,-0.05,-0.09,0.13
3.224,-0.1,-0.05,-0.05,0.12
3.234,-0.05,-0.02,-0.04,0.07
3.244,0.04,0.06,0.02,0.07
3.254,0.1,0.1,0.06,0.16
3.264,0.07,0.09,0.05,0.12
3.274,0.02,0.04,0.04,0.06
3.284,-0.02,-0.03,0.05,0.06
3.294,0.01,-0.06,0.03,0.07
3.304,0.03,-0.1,0.0,0.11
3.314,0.05,-0.12,-0.03,0.13
3.324,0.06,-0.08,-0.02,0.1
3.334,0.01,-0.05,-0.0,0.05
3.344,-0.05,-0.02,0.03,0.06
3.354,-0.05,0.02,0.06,0.08
3.365,-0.02,0.01,-0.01,0.02
3.375,-0.02,-0.02,-0.04,0.05
3.385,-0.02,-0.03,0.0,0.04
3.395,0.03,-0.02,-0.02,0.04
3.405,0.11,-0.01,-0.03,0.11
3.415,0.15,0.01,0.05,0.16
3.425,0.05,0.09,0.09,0.14
3.435,0.07,0.11,0.13,0.18
3.445,0.12,0.1,0.03,0.16
3.455,0.09,0.06,-0.04,0.12
3.465,-0.04,0.03,-0.09,0.1
3.476,-0.11,0.02,-0.08,0.14
3.485,-0.09,0.02,-0.06,0.11
3.496,-0.0,0.03,-0.01,0.03
3.506,0.08,0.04,0.04,0.1
3.516,0.14,0.07,0.04,0.16
3.526,0.13,0.05,0.08,0.16
3.536,0.1,-0.01,0.12,0.16
3.546,0.12,-0.05,0.04,0.13
3.556,0.13,-0.1,-0.01,0.16
3.566,0.07,-0.1,0.01,0.12
3.576,0.04,-0.08,-0.02,0.09
3.586,0.06,-0.07,-0.02,0.09
3.597,0.05,-0.03,0.07,0.09
3.606,0.01,0.01,0.09,0.09
3.616,-0.01,-0.0,0.07,0.07
3.627,0.0,-0.03,0.11,0.12
3.637,0.02,-0.04,0.11,0.12
3.647,0.05,-0.05,0.09,0.11
3.657,0.04,-0.02,0.1,0.11
3.667,0.04,-0.03,0.04,0.06
3.677,0.02,-0.08,-0.07,0.1
3.687,-0.04,-0.09,-0.1,0.14
3.697,-0.07,-0.07,-0.07,0.12
3.707,-0.05,-0.02,-0.06,0.08
3.717,-0.05,0.04,-0.04,0.08
3.727,0.0,0.11,0.01,0.11
3.737,0.02,0.13,0.07,0.15
3.748,0.01,0.14,0.04,0.14
3.757,0.03,0.11,0.01,0.12
3.768,0.06,0.07,-0.01,0.09
3.778,0.07,0.05,-0.01,0.09
3.788,0.07,0.05,0.0,0.09
3.798,0.09,0.06,0.05,0.12
3.808,0.15,0.08,0.05,0.18
3.818,0.14,0.07,0.07,0.17
3.828,0.14,0.08,-0.02,0.17
3.838,0.08,0.02,-0.05,0.1
3.848,0.02,-0.0,-0.04,0.04
3.858,0.02,0.05,-0.11,0.13
3.868,0.04,0.04,-0.21,0.22
3.879,0.03,0.04,-0.18,0.19
3.888,0.01,0.12,-0.06,0.13
3.899,0.02,0.15,0.02,0.15
3.909,0.03,0.12,0.08,0.15
3.919,0.05,0.1,0.09,0.14
3.929,0.1,0.05,0.06,0.12
3.939,0.11,-0.01,-0.01,0.12
3.949,0.08,-0.04,-0.03,0.09
3.959,0.01,-0.06,-0.01,0.06
3.969,-0.01,-0.05,0.01,0.05
3.979,-0.01,-0.05,0.02,0.05
3.989,-0.03,-0.07,0.08,0.11
3.999,-0.02,-0.02,0.1,0.11
4.009,0.01,-0.02,0.08,0.08
4.019,0.02,-0.05,0.08,0.09
4.029,0.08,-0.06,0.05,0.11
4.04,0.09,-0.07,-0.03,0.12
4.05,0.05,-0.06,-0.04,0.09
4.06,0.01,-0.04,-0.02,0.04
4.07,0.01,-0.03,-0.02,0.04
4.08,0.04,0.01,0.02,0.04
4.09,0.07,0.05,0.04,0.09
4.1,0.09,0.06,0.06,0.12
4.11,0.06,0.09,0.12,0.16
4.12,0.04,0.11,0.16,0.2
4.13,0.06,0.09,0.09,0.14
4.14,0.06,0.04,0.03,0.08
4.15,0.05,0.04,0.0,0.06
4.16,0.03,0.04,-0.05,0.07
4.17,0.01,0.01,-0.09,0.09
4.18,0.03,-0.01,-0.11,0.12
4.191,0.01,-0.01,-0.1,0.1
4.201,-0.03,-0.01,-0.1,0.1
4.211,-0.0,-0.01,-0.14,0.14
4.221,-0.0,0.02,-0.12,0.13
4.231,-0.02,0.06,-0.07,0.09
4.241,-0.04,0.09,0.01,0.09
4.251,-0.01,0.12,0.02,0.12
4.261,0.04,0.13,0.0,0.13
4.271,0.02,0.11,-0.02,0.12
4.281,-0.02,0.08,0.0,0.09
4.291,-0.02,0.06,-0.09,0.11
4.301,-0.03,-0.01,-0.11,0.11
4.312,-0.03,-0.06,-0.05,0.09
4.322,0.0,-0.09,0.04,0.1
4.332,0.06,-0.06,0.14,0.17
4.342,0.12,-0.04,0.13,0.18
4.352,0.15,-0.07,0.14,0.22
4.362,0.15,-0.1,0.16,0.24
4.372,0.09,-0.1,0.13,0.19
4.382,0.04,-0.15,0.13,0.2
4.392,0.03,-0.15,0.13,0.2
4.402,0.01,-0.11,0.05,0.12
4.412,0.03,-0.12,0.04,0.13
4.422,0.05,-0.08,0.04,0.1
4.432,0.06,-0.03,0.04,0.08
4.443,0.06,-0.01,0.09,0.11
4.453,0.06,-0.0,0.07,0.09
4.463,0.07,-0.02,0.0,0.08
4.473,0.05,-0.02,0.04,0.06
4.483,0.06,0.03,0.05,0.08
4.493,0.11,0.03,0.04,0.12
4.503,0.15,0.04,0.03,0.16
4.513,0.07,0.05,-0.02,0.09
4.523,-0.03,0.02,0.0,0.03
4.533,-0.04,-0.01,-0.02,0.05
4.543,-0.01,0.01,-0.11,0.11
4.553,-0.0,0.04,-0.09,0.1
4.563,-0.05,0.06,0.01,0.07
4.574,-0.04,0.07,0.03,0.09
4.583,0.01,0.1,-0.01,0.11
4.594,0.01,0.08,-0.02,0.09
4.604,0.02,-0.0,0.01,0.02
4.614,-0.01,-0.02,-0.04,0.05
4.624,-0.05,-0.04,-0.11,0.13
4.634,-0.01,-0.07,-0.1,0.13
4.644,0.03,-0.05,-0.06,0.09
4.654,0.02,-0.01,-0.05,0.05
4.664,-0.01,-0.01,-0.01,0.02
4.674,0.0,-0.01,0.02,0.02
4.684,0.01,0.01,0.04,0.04
4.694,0.01,0.02,0.09,0.09
4.704,0.02,0.0,0.06,0.06
4.714,0.06,0.04,0.05,0.08
4.725,0.11,0.06,0.09,0.15
4.735,0.04,0.03,0.11,0.12
4.745,-0.02,-0.0,0.03,0.04
4.755,-0.01,-0.04,-0.01,0.04
4.765,0.02,-0.07,-0.02,0.07
4.775,0.01,-0.07,-0.03,0.07
4.785,-0.02,-0.05,-0.06,0.08
4.795,0.0,-0.04,0.01,0.04
4.805,0.09,-0.02,0.05,0.1
4.815,0.14,0.03,-0.03,0.14
4.825,0.08,0.01,0.01,0.08
4.835,0.01,-0.03,0.09,0.09
4.845,0.02,-0.02,0.11,0.11
4.855,0.06,0.0,0.09,0.11
4.865,0.09,0.0,0.0,0.09
4.876,0.07,-0.02,-0.02,0.07
4.886,0.01,-0.03,-0.01,0.03
4.896,-0.04,-0.02,-0.01,0.05
4.906,-0.03,0.02,0.01,0.03
4.916,0.06,0.06,0.0,0.09
4.926,0.1,0.05,-0.02,0.12
4.936,0.07,0.04,-0.03,0.09
4.946,0.08,0.07,0.03,0.11
4.956,0.06,0.08,0.03,0.11
4.966,0.07,0.06,-0.0,0.09
4.976,0.08,0.04,-0.04,0.1
4.986,0.06,0.01,-0.05,0.08
4.996,0.05,0.01,-0.02,0.05
5.007,0.05,0.03,-0.02,0.06
5.017,0.08,0.02,0.01,0.08
5.027,0.11,0.02,0.02,0.11
5.037,0.09,0.05,-0.01,0.1
5.047,0.05,0.02,0.04,0.07
5.057,0.05,-0.0,0.07,0.09
5.067,0.06,0.01,0.03,0.07
5.077,0.03,-0.0,0.05,0.06
5.087,0.02,-0.01,0.06,0.07
5.097,0.09,-0.0,0.04,0.09
5.107,0.15,-0.01,0.03,0.15
5.117,0.1,0.02,0.03,0.11
5.127,-0.02,0.02,0.04,0.05
5.138,-0.06,-0.04,0.01,0.07
5.148,-0.01,-0.05,-0.06,0.08
5.158,0.03,-0.03,-0.05,0.06
5.168,0.02,0.02,0.08,0.09
5.178,0.01,0.06,0.01,0.06
5.188,0.04,0.02,-0.03,0.05
5.198,0.03,-0.01,-0.01,0.03
5.208,0.0,-0.01,-0.02,0.02
5.218,-0.01,-0.03,-0.07,0.07
5.228,-0.01,-0.03,-0.11,0.12
5.238,-0.0,-0.01,-0.1,0.1
5.248,0.01,0.0,-0.03,0.04
5.258,0.01,0.0,0.04,0.04
5.269,0.02,0.03,0.06,0.06
5.279,0.05,0.05,0.05,0.09
5.289,0.08,0.05,0.07,0.11
5.299,0.06,0.01,0.1,0.12
5.309,0.06,0.0,0.07,0.09
5.319,0.07,-0.01,0.07,0.1
5.329,0.06,-0.01,0.04,0.07
5.339,0.04,0.0,0.03,0.05
5.349,0.07,-0.0,0.02,0.07
5.359,0.06,-0.01,-0.01,0.06
5.369,0.03,0.0,0.01,0.04
5.379,0.03,0.0,0.01,0.03
5.389,0.08,-0.01,0.03,0.09
5.399,0.09,0.0,0.04,0.09
5.41,0.04,0.0,0.04,0.06
5.419,0.06,-0.01,0.07,0.09
5.43,0.1,-0.03,0.08,0.13
5.44,0.08,-0.04,0.05,0.1
5.45,0.03,-0.03,0.05,0.07
5.46,0.02,-0.03,0.01,0.03
5.47,0.04,-0.08,-0.04,0.1
5.48,0.05,-0.09,-0.11,0.15
5.49,-0.04,-0.06,-0.05,0.09
5.5,-0.06,-0.01,0.0,0.06
5.51,0.06,0.04,0.04,0.08
5.52,0.06,0.05,0.11,0.13
5.53,0.05,0.07,0.04,0.1
5.54,0.02,0.05,-0.0,0.05
5.55,0.02,0.03,-0.01,0.04
5.561,0.04,0.04,-0.02,0.06
5.571,0.06,0.06,-0.08,0.12
5.581,0.02,0.05,-0.08,0.1
5.591,-0.03,0.04,-0.0,0.06
5.601,-0.01,0.04,0.02,0.05
5.611,0.05,0.04,0.0,0.07
5.621,0.06,0.04,0.02,0.08
5.631,0.05,0.01,0.09,0.11
5.641,0.07,0.02,0.09,0.11
5.651,0.07,0.02,0.03,0.08
5.661,0.07,-0.01,-0.02,0.07
5.671,0.04,-0.05,0.02,0.07
5.681,0.02,-0.03,0.01,0.04
5.692,0.02,-0.03,-0.05,0.06
5.702,0.03,-0.03,-0.05,0.06
5.712,0.03,-0.01,-0.01,0.04
5.722,0.05,-0.0,0.04,0.06
5.732,0.03,0.02,0.09,0.1
5.742,0.05,0.05,0.05,0.09
5.752,0.08,0.02,0.0,0.09
5.762,0.04,-0.02,-0.02,0.05
5.772,-0.04,-0.02,0.01,0.05
5.782,-0.05,0.02,-0.0,0.06
5.792,0.0,0.04,-0.02,0.04
5.802,0.05,0.04,-0.01,0.07
5.813,0.04,0.06,0.02,0.07
5.823,-0.0,0.07,0.02,0.07
5.832,0.02,0.0,0.0,0.02
5.843,0.09,-0.02,-0.03,0.1
5.853,0.1,-0.0,-0.09,0.14
5.863,0.01,-0.02,-0.02,0.03
5.873,-0.02,-0.02,-0.0,0.03
5.883,0.06,-0.03,-0.04,0.08
5.893,0.09,-0.01,-0.04,0.1
5.903,0.03,0.02,0.05,0.06
5.913,0.01,0.04,0.1,0.11
5.923,0.04,0.05,0.14,0.16
5.933,0.12,0.09,0.15,0.21
5.943,0.11,0.08,0.17,0.22
5.953,0.07,0.02,0.13,0.15
5.963,0.04,-0.05,0.02,0.07
5.974,0.07,-0.08,-0.1,0.14
5.984,0.02,-0.08,-0.09,0.12
5.994,-0.05,-0.09,-0.05,0.11
6.004,-0.02,-0.04,-0.06,0.08
6.014,0.07,0.0,-0.04,0.09
6.024,0.12,0.02,-0.05,0.13
6.034,0.06,0.0,-0.02,0.07
6.044,0.01,0.01,0.04,0.04
6.054,-0.0,0.05,0.05,0.07
6.064,0.06,0.04,-0.03,0.08
6.074,0.05,0.01,-0.04,0.06
6.084,-0.02,-0.0,0.02,0.03
6.095,-0.06,0.0,0.05,0.08
6.104,-0.06,0.01,0.01,0.06
6.115,-0.01,0.04,-0.01,0.04
6.125,0.03,0.04,-0.01,0.05
6.135,0.03,0.02,-0.01,0.04
6.145,0.0,0.01,0.02,0.02
6.155,-0.01,0.02,0.03,0.03
6.165,-0.0,0.02,0.01,0.02
6.175,0.02,0.0,-0.03,0.03
6.185,0.06,-0.0,-0.05,0.08
6.195,0.04,0.01,-0.05,0.06
6.205,0.01,0.03,-0.0,0.03
6.215,0.04,0.01,0.04,0.05
6.226,0.13,-0.01,0.02,0.13
6.236,0.15,0.0,0.05,0.15
6.246,0.09,0.01,0.07,0.12
6.256,0.09,0.02,0.1,0.14
6.266,0.13,0.01,0.1,0.16
6.276,0.14,0.0,0.04,0.14
6.286,0.07,-0.02,-0.03,0.08
6.296,0.01,-0.02,-0.01,0.02
6.306,0.03,-0.01,-0.01,0.03
6.316,0.08,0.01,-0.03,0.08
6.326,0.05,0.04,0.04,0.08
6.336,0.02,0.06,0.05,0.09
6.346,0.04,0.03,0.05,0.07
6.356,0.07,0.0,-0.01,0.07
6.367,0.04,0.0,-0.06,0.07
6.377,-0.04,-0.01,-0.0,0.04
6.387,-0.04,-0.02,0.01,0.05
6.397,0.03,-0.04,-0.01,0.05
6.407,0.08,-0.01,-0.04,0.09
6.417,0.03,0.01,-0.02,0.04
6.427,-0.02,-0.02,0.03,0.04
6.437,-0.02,-0.06,0.04,0.08
6.447,-0.01,-0.02,0.0,0.02
6.457,-0.02,0.01,-0.01,0.02
6.467,-0.03,0.0,0.02,0.04
6.477,-0.01,-0.01,0.0,0.02
6.487,-0.0,-0.01,-0.03,0.03
6.497,0.04,0.0,-0.05,0.06
6.507,0.04,-0.0,-0.01,0.04
6.518,0.04,0.01,0.02,0.05
6.528,0.06,0.02,0.04,0.08
6.538,0.1,0.06,0.05,0.12
6.548,0.07,0.06,0.08,0.13
6.558,0.05,0.06,0.12,0.14
6.568,0.05,0.04,0.08,0.1
6.578,0.03,-0.01,0.0,0.03
6.588,0.04,-0.03,-0.01,0.05
6.598,0.05,-0.01,0.01,0.05
6.608,0.07,0.02,-0.0,0.08
6.618,0.1,0.04,-0.0,0.11
6.628,0.07,0.04,0.04,0.09
6.639,0.07,0.05,0.05,0.1
6.648,0.07,0.03,-0.0,0.08
6.659,0.06,0.01,-0.06,0.08
6.669,0.02,-0.03,-0.04,0.05
6.679,-0.01,-0.06,-0.06,0.08
6.689,0.01,-0.07,-0.03,0.08
6.699,0.0,-0.02,0.02,0.03
6.709,0.0,0.01,0.04,0.05
6.719,0.03,0.03,0.05,0.07
6.729,0.04,0.02,0.07,0.08
6.739,0.01,0.03,0.08,0.08
6.749,-0.03,0.04,0.06,0.08
6.759,0.06,0.02,-0.0,0.06
6.769,0.09,0.01,-0.08,0.12
6.779,0.02,-0.0,-0.06,0.06
6.79,-0.05,0.02,-0.01,0.05
6.799,-0.03,0.06,-0.01,0.07
6.81,0.04,0.07,-0.02,0.08
6.82,0.12,0.13,-0.05,0.18
6.83,0.09,0.09,0.01,0.12
6.84,0.08,0.05,0.08,0.12
6.85,0.1,0.04,0.08,0.14
6.86,0.09,-0.01,-0.02,0.1
6.87,0.09,-0.04,-0.08,0.13
6.88,0.0,-0.04,-0.04,0.06
6.89,-0.02,0.0,-0.01,0.02
6.9,0.03,0.03,0.02,0.05
6.91,0.08,0.04,0.01,0.09
6.921,0.11,0.01,0.04,0.12
6.931,0.12,-0.01,0.08,0.14
6.941,0.11,-0.02,0.08,0.14
6.951,0.08,-0.04,0.05,0.1
6.961,0.08,-0.04,0.03,0.09
6.971,0.07,-0.02,0.03,0.08
6.981,0.06,-0.03,0.06,0.09
6.991,0.07,-0.02,0.04,0.09
7.001,0.07,-0.01,0.05,0.09
7.011,0.06,0.03,0.05,0.08
7.021,0.06,0.07,-0.0,0.09
7.031,0.06,0.07,-0.08,0.12
7.042,0.02,0.07,-0.12,0.14
7.052,-0.04,0.07,-0.09,0.12
7.061,-0.1,0.08,-0.08,0.15
7.072,-0.03,0.04,-0.02,0.06
7.082,0.11,0.08,-0.07,0.15
7.092,0.11,0.07,-0.0,0.13
7.102,0.09,0.1,0.08,0.15
7.112,0.05,0.08,0.12,0.15
7.122,0.07,0.04,0.11,0.14
7.132,0.12,0.03,-0.01,0.13
7.142,0.08,-0.02,-0.04,0.09
7.152,0.03,-0.06,-0.01,0.07
7.162,0.0,-0.07,-0.05,0.09
7.172,0.0,-0.09,-0.04,0.1
7.182,-0.0,-0.07,0.0,0.07
7.193,-0.04,-0.05,0.03,0.07
7.203,-0.04,-0.06,0.03,0.07
7.213,-0.04,-0.07,0.05,0.09
7.223,0.0,-0.02,0.07,0.08
7.233,-0.0,-0.01,0.1,0.1
7.243,-0.01,-0.02,0.12,0.13
7.253,-0.02,-0.03,0.1,0.11
7.263,-0.01,-0.05,0.08,0.09
7.273,-0.0,-0.07,0.05,0.09
7.283,0.02,-0.1,-0.02,0.1
7.293,0.02,-0.1,-0.07,0.13
7.303,0.02,-0.09,-0.07,0.11
7.313,0.04,-0.05,-0.05,0.08
7.324,0.07,0.0,-0.04,0.08
7.334,0.09,0.04,-0.02,0.1
7.344,0.08,0.05,0.01,0.09
7.354,0.06,0.08,0.02,0.1
7.364,0.04,0.08,-0.01,0.09
7.374,-0.0,0.05,0.0,0.05
7.384,-0.0,0.05,-0.01,0.06
7.394,0.05,0.07,-0.03,0.09
7.404,0.09,0.06,-0.0,0.11
7.414,0.12,0.03,0.01,0.13
7.424,0.13,0.04,-0.02,0.14
7.434,0.09,0.04,-0.0,0.1
7.445,0.05,0.04,0.01,0.06
7.454,0.07,0.0,0.02,0.07
7.465,0.07,-0.03,0.03,0.08
7.475,0.04,-0.0,0.06,0.08
7.485,0.07,-0.01,0.07,0.1
7.495,0.11,-0.06,0.05,0.13
7.505,0.05,-0.06,0.05,0.1
7.515,0.0,-0.02,0.04,0.05
7.525,0.04,-0.0,0.06,0.08
7.535,0.12,-0.02,0.03,0.13
7.545,0.06,-0.05,0.02,0.08
7.555,-0.03,-0.03,0.07,0.08
7.565,-0.03,-0.02,0.06,0.07
7.576,0.06,-0.04,0.01,0.07
7.585,0.09,-0.05,-0.05,0.12
7.596,0.02,-0.02,-0.06,0.06
7.606,-0.04,0.0,0.01,0.04
7.616,0.01,-0.02,0.01,0.03
7.626,0.05,-0.04,-0.06,0.09
7.636,-0.01,-0.02,-0.06,0.06
7.646,-0.04,-0.01,0.01,0.05
7.656,-0.04,-0.01,0.05,0.06
7.666,0.01,-0.0,0.05,0.05
7.676,0.05,0.03,0.02,0.06
7.686,0.08,0.05,0.04,0.1
7.696,0.07,0.06,0.06,0.11
7.706,0.07,0.04,0.01,0.08
7.716,0.04,0.01,0.01,0.04
7.727,0.09,0.04,-0.06,0.11
7.736,0.09,0.02,-0.08,0.13
7.746,0.06,0.0,-0.01,0.06
7.757,0.03,-0.0,0.0,0.03
7.767,0.06,-0.0,0.02,0.06
7.777,0.11,0.01,0.05,0.12
7.787,0.08,-0.01,0.08,0.11
7.797,0.03,-0.0,0.05,0.06
7.807,0.06,-0.0,0.0,0.06
7.817,0.12,-0.05,-0.04,0.13
7.827,0.11,-0.01,-0.01,0.11
7.837,0.04,0.04,0.02,0.06
7.847,0.06,0.06,0.03,0.09
7.857,0.12,0.06,0.04,0.14
7.867,0.06,0.1,0.07,0.14
7.877,0.0,0.11,0.11,0.16
7.888,0.0,0.09,0.07,0.11
7.898,0.06,0.06,0.0,0.09
7.908,0.07,0.05,-0.06,0.1
7.918,0.03,0.0,-0.06,0.06
7.928,0.01,-0.05,-0.02,0.06
7.938,0.05,-0.06,-0.05,0.09
7.948,0.06,-0.08,-0.04,0.11
7.958,0.04,-0.09,0.02,0.1
7.968,0.05,-0.05,-0.0,0.07
7.979,0.06,-0.04,0.01,0.07
7.988,0.03,-0.03,0.02,0.04
7.998,0.0,-0.01,0.05,0.05
8.008,-0.03,-0.02,0.09,0.1
8.018,-0.04,-0.01,0.06,0.07
8.029,-0.02,-0.01,0.03,0.04
8.039,0.03,-0.01,0.02,0.03
8.049,0.07,-0.0,0.02,0.07
8.059,0.08,-0.01,-0.0,0.08
8.069,0.05,-0.03,-0.0,0.05
8.079,0.02,-0.03,0.0,0.04
8.089,0.03,-0.01,-0.06,0.07
8.099,0.04,0.02,-0.08,0.09
8.109,0.0,0.03,-0.01,0.03
8.119,0.01,0.04,0.04,0.05
8.129,0.02,0.04,0.03,0.05
8.139,0.07,0.05,0.04,0.1
8.149,0.08,0.04,0.03,0.1
8.16,0.05,0.03,0.04,0.07
8.17,0.04,0.04,0.06,0.08
8.18,0.09,0.03,0.02,0.1
8.19,0.12,0.03,-0.0,0.13
8.2,0.11,0.01,-0.01,0.11
8.21,0.09,0.0,-0.03,0.1
8.22,0.08,-0.01,0.0,0.08
8.23,0.08,0.02,0.02,0.08
8.24,0.06,0.04,0.02,0.08
8.25,0.07,0.04,0.06,0.1
8.26,0.07,0.03,0.08,0.11
8.27,0.05,0.05,0.05,0.08
8.28,0.03,0.03,-0.0,0.04
8.291,0.03,-0.0,-0.03,0.04
8.301,0.01,-0.01,-0.03,0.04
8.311,-0.01,-0.02,-0.01,0.03
8.321,0.04,-0.02,-0.01,0.05
8.331,0.09,-0.03,-0.08,0.13
8.341,0.04,-0.05,-0.03,0.07
8.351,-0.02,-0.06,0.06,0.09
8.361,-0.02,-0.05,0.07,0.09
8.371,0.01,-0.03,0.06,0.06
8.381,0.01,-0.02,0.06,0.06
8.391,0.0,-0.01,0.08,0.08
8.401,0.0,-0.01,0.05,0.05
8.412,0.02,-0.02,0.0,0.03
8.421,0.02,-0.03,-0.07,0.07
8.431,0.0,-0.04,-0.07,0.08
8.442,0.03,-0.01,-0.05,0.06
8.452,0.04,-0.01,-0.06,0.07
8.462,0.04,0.01,-0.02,0.05
8.472,0.1,0.04,0.04,0.11
8.482,0.12,0.03,0.05,0.13
8.492,0.08,0.03,0.07,0.11
8.502,0.06,0.05,0.1,0.13
8.512,0.08,0.05,0.09,0.12
8.522,0.06,0.03,0.07,0.1
8.532,0.03,0.04,0.03,0.05
8.542,0.04,0.03,0.01,0.05
8.552,0.1,0.01,0.02,0.11
8.563,0.15,0.01,-0.0,0.15
8.573,0.1,-0.01,-0.03,0.1
8.583,0.04,-0.02,-0.0,0.05
8.593,0.03,-0.03,0.03,0.05
8.603,0.05,-0.0,0.04,0.06
8.613,0.07,-0.01,0.02,0.07
8.623,0.07,-0.03,0.01,0.07
8.633,0.07,-0.04,-0.01,0.08
8.643,0.02,-0.04,0.03,0.06
8.653,-0.04,-0.02,0.03,0.05
8.663,-0.0,-0.02,-0.02,0.03
8.673,0.02,-0.01,0.04,0.04
8.683,0.02,0.04,0.03,0.05
8.693,0.0,0.03,0.0,0.03
8.704,0.02,0.01,0.02,0.03
8.714,0.03,0.05,0.02,0.07
8.724,0.0,0.02,-0.04,0.04
8.734,-0.04,-0.05,-0.05,0.08
8.744,-0.01,-0.03,-0.06,0.07
8.754,-0.0,0.01,-0.06,0.06
8.764,-0.01,0.02,-0.05,0.06
8.774,0.03,-0.0,-0.0,0.03
8.784,0.05,0.01,0.07,0.09
8.794,0.06,0.07,0.11,0.15
8.804,0.08,0.08,0.05,0.12
8.814,0.09,0.02,0.0,0.1
8.824,0.08,-0.0,-0.01,0.08
8.835,0.05,0.01,-0.04,0.07
8.845,0.07,0.01,-0.03,0.08
8.855,0.12,0.05,-0.0,0.13
8.865,0.13,0.09,0.02,0.16
8.875,0.09,0.07,-0.0,0.12
8.885,0.04,0.06,-0.0,0.07
8.895,0.07,0.08,-0.01,0.1
8.905,0.08,0.07,-0.03,0.11
8.915,0.09,0.08,-0.01,0.12
8.925,0.12,0.09,0.01,0.16
8.935,0.06,0.07,-0.01,0.09
8.945,-0.07,-0.04,0.05,0.1
8.956,0.08,-0.04,0.08,0.12
8.966,0.05,-0.04,0.08,0.1
8.976,-0.06,-0.15,-0.02,0.17
8.986,-0.07,-0.18,-0.07,0.21
8.996,-0.11,-0.17,-0.04,0.21
9.006,-0.06,-0.15,-0.01,0.17
9.016,0.01,-0.1,0.02,0.1
9.026,0.09,0.0,0.09,0.13
9.036,0.14,0.06,0.09,0.18
9.046,0.17,0.07,0.09,0.21
9.056,0.18,0.07,0.05,0.2
9.066,0.08,0.07,0.01,0.11
9.076,-0.02,0.08,0.0,0.08
9.086,-0.01,0.07,-0.02,0.07
9.096,0.02,0.06,-0.06,0.09
9.107,0.04,0.07,-0.09,0.12
9.116,0.04,0.12,-0.05,0.13
9.127,0.05,0.16,-0.02,0.17
9.137,0.07,0.19,-0.02,0.2
9.147,0.11,0.15,-0.04,0.19
9.157,0.11,0.06,-0.11,0.17
9.167,0.09,0.01,-0.1,0.13
9.177,0.09,-0.03,-0.07,0.12
9.187,0.11,-0.06,-0.04,0.13
9.197,0.08,-0.05,0.02,0.1
9.207,0.05,-0.03,0.1,0.12
9.217,0.06,-0.02,0.16,0.17
9.227,0.05,-0.03,0.2,0.21
9.238,0.03,-0.08,0.23,0.25
9.248,0.02,-0.13,0.16,0.21
9.258,-0.02,-0.19,0.11,0.23
9.268,-0.01,-0.22,0.09,0.23
9.278,0.03,-0.19,0.04,0.2
9.288,0.04,-0.13,0.03,0.14
9.298,0.04,-0.08,0.06,0.11
9.308,0.07,-0.07,0.05,0.11
9.318,0.08,-0.03,-0.0,0.09
9.328,-0.02,-0.01,0.01,0.02
9.338,-0.07,-0.02,0.02,0.08
9.348,-0.03,-0.01,-0.05,0.06
9.358,-0.01,0.02,-0.06,0.06
9.368,0.0,0.03,-0.01,0.03
9.379,0.01,0.07,0.0,0.07
9.389,0.05,0.07,-0.02,0.09
9.399,0.08,0.05,-0.07,0.12
9.409,0.03,0.04,-0.1,0.11
9.419,-0.01,0.06,-0.09,0.11
9.429,-0.02,0.07,-0.06,0.09
9.439,0.05,0.09,-0.04,0.11
9.449,0.08,0.11,-0.02,0.14
9.459,0.08,0.12,0.06,0.16
9.469,0.12,0.13,0.1,0.2
9.479,0.16,0.1,0.03,0.2
9.489,0.13,0.03,-0.07,0.15
9.499,0.05,-0.0,-0.06,0.08
9.51,0.04,-0.01,-0.03,0.05
9.52,0.11,0.01,-0.06,0.13
9.529,0.14,0.03,0.01,0.14
9.54,0.05,0.06,0.1,0.13
9.55,0.03,0.07,0.1,0.13
9.56,0.08,0.07,0.11,0.16
9.57,0.19,0.05,0.08,0.22
9.58,0.17,0.05,0.04,0.18
9.59,0.06,0.02,0.08,0.1
9.6,0.07,0.02,0.02,0.08
9.61,0.12,0.04,-0.04,0.14
9.62,0.09,0.05,-0.02,0.11
9.63,0.08,0.07,0.01,0.1
9.64,0.05,0.09,-0.01,0.1
9.65,0.04,0.07,0.07,0.1
9.661,0.08,0.1,0.05,0.14
9.671,0.2,0.22,-0.02,0.29
9.681,0.14,0.18,-0.18,0.3
9.691,-0.06,0.06,-0.14,0.17
9.701,-0.42,-0.07,-0.51,0.67
9.711,-0.39,-0.32,0.07,0.51
9.721,-0.06,-0.2,0.12,0.24
9.731,0.03,-0.03,-0.02,0.05
9.741,0.05,-0.03,0.14,0.15
9.751,0.18,0.09,0.21,0.3
9.761,0.27,0.2,0.2,0.39
9.771,0.24,0.14,0.14,0.31
9.781,0.08,0.04,-0.02,0.1
9.791,-0.21,0.03,-0.38,0.43
9.802,-0.16,-0.19,-0.44,0.51
9.814,-0.17,-0.23,-0.14,0.32
