time,ax,ay,az,atotal
0.0,0.19,0.09,0.1,0.23
0.01,0.18,0.07,0.07,0.21
0.02,0.19,0.06,0.0,0.2
0.03,0.16,-0.02,-0.09,0.19
0.04,0.03,-0.12,-0.13,0.18
0.05,-0.07,-0.1,-0.18,0.22
0.06,-0.1,-0.05,-0.11,0.15
0.07,-0.03,0.01,-0.07,0.07
0.08,0.03,0.03,-0.03,0.05
0.09,0.08,0.05,0.01,0.09
0.101,0.05,0.06,0.04,0.09
0.111,0.04,0.08,0.07,0.11
0.121,0.0,0.1,0.04,0.11
0.131,-0.01,0.03,0.03,0.04
0.141,0.02,-0.03,0.01,0.04
0.151,0.02,-0.01,0.07,0.08
0.161,0.04,0.01,0.06,0.08
0.171,0.04,-0.08,0.02,0.09
0.181,0.07,-0.1,0.02,0.13
0.191,0.06,-0.07,0.08,0.12
0.201,0.07,-0.05,0.02,0.09
0.211,0.04,-0.09,-0.03,0.1
0.222,0.05,-0.09,-0.01,0.1
0.232,0.12,-0.02,0.06,0.14
0.242,0.14,0.05,0.08,0.17
0.252,0.1,0.01,0.09,0.13
0.262,0.09,-0.0,0.08,0.11
0.272,0.12,0.0,0.05,0.13
0.282,0.06,-0.02,0.13,0.15
0.292,0.04,0.01,0.09,0.1
0.302,0.01,-0.02,-0.06,0.06
0.312,0.02,-0.05,-0.05,0.07
0.322,0.04,-0.04,-0.03,0.06
0.332,0.05,0.02,-0.02,0.06
0.344,0.01,0.04,-0.04,0.05
0.354,0.04,0.0,-0.06,0.07
0.364,0.08,-0.01,-0.09,0.12
0.374,0.04,0.02,-0.02,0.05
0.384,0.01,0.07,0.04,0.08
0.394,0.01,0.04,0.06,0.08
0.404,0.05,-0.02,0.01,0.05
0.414,0.04,-0.07,-0.04,0.09
0.424,0.01,-0.06,0.02,0.06
0.434,0.05,-0.03,0.08,0.09
0.444,0.05,-0.1,-0.01,0.11
0.454,0.04,-0.13,-0.06,0.14
0.465,0.04,-0.07,-0.0,0.08
0.475,0.05,-0.02,0.09,0.11
0.485,0.06,0.0,0.11,0.12
0.495,0.06,0.0,0.03,0.07
0.505,0.04,-0.04,0.02,0.06
0.515,0.03,-0.03,0.09,0.1
0.525,0.04,-0.01,0.11,0.12
0.535,0.06,-0.02,0.03,0.07
0.545,0.04,-0.04,-0.04,0.07
0.555,0.12,-0.04,-0.07,0.15
0.565,0.09,-0.03,-0.02,0.1
0.575,-0.04,0.04,-0.01,0.06
0.585,0.01,0.07,-0.05,0.09
0.595,0.08,0.04,-0.05,0.11
0.606,0.13,0.03,-0.04,0.14
0.616,0.12,0.05,-0.03,0.14
0.626,0.1,0.01,0.03,0.1
0.636,0.08,-0.01,0.06,0.1
0.646,0.09,0.02,0.07,0.12
0.656,0.13,0.02,0.07,0.15
0.666,0.13,-0.03,0.07,0.15
0.676,0.13,-0.06,0.08,0.17
0.686,0.12,-0.09,0.11,0.19
0.696,0.12,-0.08,0.09,0.17
0.706,0.1,-0.08,0.1,0.17
0.716,0.09,-0.07,0.1,0.16
0.726,0.07,-0.06,0.11,0.14
0.737,0.03,-0.05,0.15,0.16
0.747,0.04,-0.04,0.14,0.15
0.757,0.06,-0.05,0.08,0.11
0.767,0.04,-0.05,0.06,0.09
0.777,0.04,-0.04,0.04,0.07
0.787,0.05,-0.08,-0.03,0.1
0.797,0.04,-0.08,-0.03,0.09
0.807,0.01,-0.03,-0.06,0.07
0.817,-0.02,-0.03,-0.05,0.07
0.827,0.02,-0.02,-0.03,0.04
0.837,0.06,0.0,-0.02,0.06
0.847,0.09,0.05,-0.02,0.11
0.857,0.09,0.08,-0.03,0.12
0.868,0.06,0.09,-0.11,0.16
0.878,0.02,0.02,-0.1,0.1
0.888,0.07,0.01,-0.04,0.08
0.898,0.13,0.04,-0.04,0.14
0.908,0.13,0.04,0.01,0.14
0.918,0.12,0.03,0.08,0.15
0.928,0.13,0.04,0.07,0.16
0.938,0.12,-0.01,0.05,0.13
0.948,0.07,-0.02,0.06,0.09
0.958,0.01,-0.03,0.06,0.07
0.968,0.03,-0.02,0.07,0.08
0.978,0.06,-0.02,0.03,0.07
0.988,0.07,-0.02,-0.01,0.07
0.998,0.06,-0.02,-0.03,0.07
1.008,0.05,-0.03,0.0,0.06
1.019,0.04,0.03,0.07,0.09
1.029,0.06,0.08,0.02,0.1
1.039,0.05,0.05,0.0,0.07
1.049,0.08,0.05,0.06,0.12
1.059,0.12,0.07,0.06,0.15
1.069,0.15,0.04,-0.01,0.15
1.079,0.15,0.01,-0.04,0.16
1.089,0.16,0.0,-0.05,0.17
1.099,0.13,0.02,-0.02,0.13
1.109,0.06,0.03,0.0,0.07
1.12,0.03,0.03,0.03,0.05
1.129,0.04,0.02,0.03,0.05
1.139,0.02,-0.01,0.01,0.03
1.15,0.0,-0.07,0.01,0.07
1.16,0.01,-0.09,0.01,0.09
1.17,0.02,-0.09,0.01,0.09
1.18,0.06,-0.06,0.07,0.11
1.19,0.1,-0.06,0.06,0.13
1.2,0.08,-0.06,0.08,0.13
1.21,0.07,-0.05,0.09,0.12
1.22,0.09,-0.06,0.03,0.11
1.23,0.08,-0.09,0.0,0.12
1.24,0.03,-0.08,-0.03,0.09
1.25,-0.01,-0.05,-0.03,0.06
1.26,-0.01,-0.01,0.03,0.03
1.27,0.01,0.02,0.05,0.06
1.281,-0.01,0.06,0.0,0.06
1.291,-0.04,0.04,0.02,0.06
1.301,-0.0,0.02,0.03,0.04
1.311,0.1,-0.01,-0.06,0.12
1.321,0.11,-0.05,-0.11,0.16
1.331,0.02,-0.07,-0.07,0.1
1.341,-0.01,-0.03,0.01,0.03
1.351,0.08,-0.02,0.03,0.09
1.361,0.14,0.0,0.04,0.15
1.371,0.15,0.04,0.08,0.17
1.381,0.12,0.07,0.11,0.17
1.391,0.08,0.05,0.12,0.15
1.402,0.1,-0.02,0.09,0.13
1.412,0.11,-0.04,0.04,0.12
1.422,0.06,-0.02,0.06,0.09
1.432,0.0,0.01,-0.01,0.01
1.442,-0.0,-0.06,0.03,0.07
1.452,0.09,-0.03,0.03,0.1
1.462,0.13,0.01,0.04,0.14
1.472,0.11,0.01,0.08,0.14
1.482,0.1,0.01,0.01,0.1
1.492,0.09,-0.03,-0.04,0.11
1.502,0.1,-0.04,-0.02,0.11
1.512,0.07,-0.01,-0.02,0.07
1.522,-0.01,-0.01,-0.01,0.01
1.532,0.0,0.02,-0.03,0.04
1.543,0.04,-0.0,-0.02,0.04
1.552,0.03,0.03,0.03,0.05
1.563,0.01,0.04,-0.0,0.04
1.573,-0.0,-0.0,-0.06,0.06
1.583,0.05,-0.01,-0.05,0.07
1.593,0.07,-0.0,-0.01,0.07
1.603,0.02,-0.01,-0.02,0.03
1.613,-0.01,-0.03,-0.07,0.07
1.623,-0.01,-0.03,-0.09,0.09
1.633,0.01,-0.04,-0.05,0.06
1.643,0.03,-0.04,-0.03,0.06
1.653,0.1,-0.05,-0.04,0.12
1.663,0.13,-0.05,0.0,0.14
1.673,0.09,-0.03,0.08,0.13
1.683,0.06,0.02,0.18,0.19
1.694,0.1,0.04,0.22,0.24
1.704,0.13,0.01,0.15,0.19
1.714,0.09,-0.06,0.13,0.17
1.724,0.04,-0.07,0.15,0.17
1.734,0.05,-0.08,0.1,0.14
1.744,0.08,-0.12,0.01,0.14
1.754,0.08,-0.13,-0.02,0.15
1.764,0.08,-0.07,0.02,0.11
1.774,0.08,-0.02,0.03,0.08
1.784,0.07,-0.04,-0.0,0.08
1.794,0.08,-0.03,-0.03,0.09
1.804,0.05,0.01,-0.0,0.05
1.814,0.01,0.06,0.02,0.06
1.825,0.0,0.06,0.0,0.06
1.835,0.05,0.02,-0.01,0.06
1.845,0.13,0.04,-0.02,0.13
1.855,0.14,0.03,0.0,0.14
1.865,0.08,-0.01,0.01,0.08
1.875,0.06,-0.01,-0.01,0.06
1.885,0.06,-0.02,0.02,0.06
1.895,-0.01,0.01,0.08,0.08
1.905,-0.04,0.0,0.03,0.05
1.915,-0.02,-0.07,-0.0,0.07
1.925,0.03,-0.03,-0.0,0.05
1.935,0.06,-0.02,0.0,0.06
1.945,0.09,-0.03,0.01,0.09
1.955,0.14,-0.02,-0.02,0.14
1.965,0.13,-0.03,-0.01,0.14
1.976,0.08,-0.02,-0.01,0.08
1.986,0.02,-0.04,-0.04,0.06
1.996,0.06,-0.03,-0.02,0.07
2.006,0.08,0.02,-0.01,0.08
2.016,0.07,0.06,0.07,0.12
2.026,0.07,0.1,0.12,0.17
2.036,0.07,0.14,0.18,0.24
2.046,0.15,0.15,0.14,0.26
2.056,0.14,0.05,0.06,0.16
2.066,0.11,-0.03,0.03,0.12
2.076,0.11,-0.02,-0.04,0.11
2.086,0.09,-0.06,-0.06,0.12
2.097,0.07,-0.07,-0.08,0.13
2.107,0.06,-0.06,-0.06,0.11
2.117,0.1,-0.02,-0.01,0.1
2.127,0.12,0.01,-0.0,0.12
2.137,0.11,0.03,0.03,0.12
2.147,0.09,0.01,0.03,0.09
2.157,0.05,-0.01,0.04,0.07
2.167,0.06,-0.01,0.09,0.11
2.177,0.08,0.02,0.04,0.09
2.187,0.06,0.0,0.02,0.06
2.197,0.06,-0.04,0.03,0.08
2.207,0.05,-0.03,0.0,0.06
2.217,0.04,-0.02,0.02,0.05
2.227,0.04,-0.01,0.0,0.04
2.238,0.02,0.0,0.01,0.03
2.248,0.03,0.03,0.04,0.06
2.258,0.04,0.04,0.05,0.08
2.268,0.07,0.03,0.03,0.09
2.278,0.1,0.0,-0.04,0.1
2.288,0.08,-0.02,-0.04,0.09
2.298,0.05,-0.01,-0.02,0.05
2.308,0.02,-0.01,-0.03,0.04
2.318,0.02,-0.01,-0.08,0.08
2.328,0.0,-0.01,-0.07,0.07
2.338,0.01,0.01,-0.0,0.02
2.348,0.03,0.04,0.01,0.06
2.358,0.05,0.04,0.03,0.08
2.368,0.08,0.02,0.05,0.09
2.379,0.09,0.02,0.04,0.1
2.389,0.09,0.01,0.04,0.1
2.399,0.09,-0.02,0.01,0.09
2.409,0.11,-0.03,-0.05,0.12
2.419,0.06,-0.04,-0.04,0.09
2.429,0.04,-0.01,-0.01,0.04
2.439,0.07,0.04,-0.01,0.08
2.449,0.1,0.05,0.03,0.12
2.459,0.11,0.05,0.03,0.13
2.469,0.12,0.04,0.05,0.14
2.479,0.1,0.01,0.08,0.13
2.489,0.09,-0.0,0.08,0.12
2.499,0.09,-0.02,0.01,0.09
2.509,0.08,-0.08,-0.06,0.12
2.52,0.04,-0.09,0.0,0.1
2.53,0.03,-0.07,0.03,0.08
2.54,0.07,-0.04,0.06,0.1
2.55,0.11,-0.01,0.13,0.17
2.56,0.13,0.03,0.14,0.19
2.57,0.11,0.01,0.13,0.17
2.58,0.1,-0.0,0.06,0.12
2.59,0.08,-0.07,-0.03,0.11
2.6,0.01,-0.11,-0.06,0.13
2.61,-0.05,-0.09,-0.08,0.13
2.621,-0.03,-0.05,-0.08,0.1
2.63,0.04,-0.02,-0.04,0.06
2.64,0.07,0.02,-0.03,0.08
2.651,0.05,0.03,-0.0,0.06
2.661,0.07,0.01,0.04,0.08
2.671,0.06,-0.0,0.13,0.14
2.681,0.05,0.03,0.11,0.13
2.691,0.04,0.03,0.06,0.08
2.701,0.06,0.01,0.08,0.1
2.711,0.09,-0.01,0.07,0.12
2.721,0.08,-0.03,0.01,0.09
2.731,0.07,-0.09,-0.04,0.12
2.741,0.06,-0.14,-0.07,0.17
2.751,0.05,-0.15,-0.07,0.17
2.761,0.04,-0.13,-0.03,0.14
2.772,0.06,-0.09,0.03,0.12
2.781,0.09,-0.07,0.07,0.14
2.792,0.09,-0.07,0.1,0.15
2.802,0.09,-0.03,0.14,0.17
2.812,0.13,-0.02,0.14,0.19
2.822,0.1,-0.06,0.16,0.2
2.832,0.07,-0.04,0.15,0.17
2.842,0.07,-0.04,0.08,0.12
2.852,0.06,-0.05,0.07,0.11
2.862,0.04,-0.03,0.03,0.06
2.872,0.04,-0.03,-0.03,0.05
2.882,0.04,-0.04,-0.09,0.11
2.892,0.03,-0.03,-0.09,0.1
2.903,0.05,0.02,-0.06,0.08
2.912,0.07,0.03,-0.05,0.09
2.922,0.08,0.05,-0.05,0.11
2.933,0.07,0.08,-0.02,0.11
2.943,0.07,0.06,-0.0,0.09
2.953,0.06,0.04,0.02,0.08
2.963,0.04,0.05,0.05,0.08
2.973,0.05,0.07,0.03,0.09
2.983,0.08,0.08,0.02,0.11
2.993,0.14,0.03,0.03,0.15
3.003,0.15,0.01,0.01,0.15
3.013,0.11,0.03,-0.04,0.12
3.023,0.09,0.02,-0.02,0.09
3.033,0.11,-0.01,-0.03,0.11
3.043,0.1,-0.02,-0.04,0.11
3.054,0.09,-0.01,0.0,0.09
3.063,0.09,-0.01,0.04,0.1
3.074,0.1,-0.04,0.07,0.13
3.084,0.1,-0.05,0.05,0.12
3.094,0.11,-0.01,0.03,0.11
3.104,0.08,-0.02,0.06,0.1
3.114,0.07,-0.03,0.07,0.1
3.124,0.09,-0.01,0.04,0.1
3.134,0.11,-0.01,0.05,0.12
3.144,0.11,-0.02,0.02,0.11
3.154,0.1,-0.05,-0.03,0.11
3.164,0.04,-0.05,0.02,0.07
3.174,0.01,-0.02,0.05,0.06
3.184,0.04,-0.02,0.02,0.05
3.195,0.06,-0.01,0.0,0.06
3.205,0.09,0.02,0.03,0.1
3.215,0.06,0.01,0.07,0.09
3.225,0.04,0.04,0.07,0.09
3.235,0.03,0.04,0.03,0.06
3.245,0.03,-0.0,0.01,0.04
3.255,0.05,-0.05,-0.01,0.07
3.265,0.03,-0.09,-0.0,0.09
3.275,0.03,-0.08,0.04,0.09
3.285,0.05,-0.07,0.04,0.09
3.295,0.08,-0.06,0.05,0.11
3.305,0.12,-0.04,0.1,0.16
3.315,0.11,-0.02,0.11,0.16
3.325,0.08,-0.03,0.11,0.14
3.335,0.08,-0.04,0.09,0.13
3.346,0.07,-0.05,0.05,0.1
3.356,0.08,-0.07,-0.01,0.1
3.366,0.06,-0.06,-0.02,0.09
3.376,0.06,-0.03,-0.03,0.08
3.386,0.07,0.0,-0.03,0.08
3.396,0.12,0.01,-0.01,0.12
3.406,0.12,0.01,-0.02,0.13
3.416,0.11,0.02,-0.01,0.11
3.426,0.12,0.02,0.02,0.12
3.436,0.13,0.02,0.0,0.13
3.446,0.09,0.03,0.01,0.09
3.456,0.05,0.07,0.08,0.12
3.466,0.09,0.09,0.07,0.15
3.477,0.1,0.06,0.03,0.12
3.486,0.09,0.04,-0.01,0.1
3.497,0.06,0.03,-0.08,0.11
3.507,0.03,-0.03,-0.05,0.06
3.517,0.02,-0.0,-0.02,0.03
3.527,0.05,0.05,-0.03,0.07
3.537,0.08,0.05,-0.01,0.09
3.547,0.09,0.06,-0.0,0.11
3.557,0.07,0.04,-0.04,0.09
3.567,0.04,-0.0,-0.01,0.04
3.577,0.02,-0.0,0.01,0.03
3.587,0.04,-0.01,0.03,0.05
3.597,0.07,-0.0,0.05,0.09
3.607,0.08,0.0,0.06,0.1
3.618,0.1,0.01,0.07,0.13
3.628,0.11,-0.0,0.07,0.13
3.638,0.09,-0.03,0.07,0.12
3.648,0.05,-0.03,0.06,0.09
3.658,0.06,-0.06,0.05,0.1
3.668,0.11,-0.11,-0.03,0.16
3.678,0.06,-0.14,-0.09,0.18
3.688,0.01,-0.1,-0.02,0.11
3.698,0.02,-0.03,0.05,0.06
3.708,0.06,-0.02,0.09,0.11
3.718,0.08,0.0,0.07,0.11
3.728,0.15,-0.01,0.02,0.16
3.738,0.05,-0.03,0.1,0.11
3.748,0.02,0.01,0.05,0.05
3.759,0.02,-0.03,-0.01,0.04
3.769,0.04,-0.04,-0.06,0.08
3.779,0.01,-0.02,-0.1,0.1
3.789,-0.04,0.0,-0.03,0.05
3.799,-0.01,0.04,0.04,0.06
3.809,0.04,0.02,0.07,0.09
3.819,0.07,-0.02,0.08,0.11
3.829,0.06,-0.04,0.07,0.1
3.839,0.1,-0.05,0.03,0.11
3.849,0.14,-0.09,-0.03,0.17
3.859,0.13,-0.08,-0.02,0.15
3.869,0.07,-0.02,-0.01,0.07
3.879,0.05,0.0,0.03,0.06
3.889,0.08,-0.01,0.04,0.09
3.9,0.1,0.01,0.08,0.13
3.91,0.09,0.05,0.08,0.13
3.92,0.1,0.04,0.08,0.14
3.93,0.11,0.05,0.05,0.13
3.94,0.08,0.08,0.05,0.12
3.95,0.05,0.07,0.07,0.11
3.96,0.04,0.06,0.03,0.09
3.97,0.07,0.02,0.01,0.07
3.98,0.08,-0.02,-0.03,0.09
3.99,0.07,-0.02,-0.07,0.1
4.0,0.07,-0.04,-0.04,0.09
4.01,0.13,-0.04,-0.04,0.14
4.021,0.17,-0.02,-0.11,0.2
4.031,0.1,-0.02,-0.11,0.15
4.041,0.06,-0.01,-0.04,0.08
4.051,0.06,-0.02,0.02,0.06
4.061,0.04,0.02,0.07,0.09
4.071,0.02,0.03,0.07,0.08
4.081,0.0,-0.0,0.09,0.09
4.091,0.07,-0.0,0.1,0.12
4.101,0.09,-0.03,0.08,0.13
4.111,0.06,-0.05,0.02,0.08
4.121,0.0,-0.04,0.01,0.04
4.131,0.04,-0.03,0.06,0.08
4.141,0.1,-0.03,0.03,0.11
4.152,0.06,-0.04,0.02,0.08
4.162,0.03,0.0,0.09,0.09
4.172,0.02,0.01,-0.0,0.02
4.182,0.02,-0.08,-0.03,0.08
4.192,0.08,-0.09,-0.07,0.14
4.202,0.03,-0.04,-0.07,0.09
4.212,-0.03,0.01,0.03,0.05
4.222,-0.01,0.06,0.07,0.09
4.232,0.08,0.07,0.05,0.12
4.242,0.17,0.06,0.06,0.19
4.252,0.15,0.05,0.03,0.17
4.262,0.11,0.03,-0.01,0.12
4.272,0.06,-0.02,-0.01,0.07
4.283,0.06,-0.03,-0.01,0.07
4.292,0.1,-0.02,-0.07,0.12
4.303,0.08,-0.04,-0.05,0.1
4.313,0.09,-0.01,-0.01,0.09
4.323,0.13,0.06,0.0,0.15
4.333,0.14,0.04,0.04,0.15
4.343,0.11,0.04,0.03,0.12
4.353,0.09,0.02,0.05,0.11
4.363,0.08,-0.01,0.07,0.11
4.373,0.07,-0.02,0.07,0.1
4.383,0.06,-0.04,0.01,0.07
4.393,0.07,-0.07,0.01,0.1
4.403,0.08,-0.05,0.06,0.12
4.413,0.07,-0.02,0.06,0.09
4.423,0.06,-0.02,0.05,0.08
4.433,0.08,-0.01,0.04,0.09
4.444,0.09,0.01,0.03,0.09
4.454,0.08,0.02,0.01,0.08
4.464,0.05,0.01,-0.1,0.11
4.474,0.03,-0.03,-0.13,0.14
4.484,0.03,-0.02,-0.13,0.13
4.494,-0.0,-0.01,-0.09,0.09
4.504,-0.02,0.01,-0.05,0.06
4.514,-0.0,0.02,0.03,0.04
4.524,0.07,0.04,0.07,0.11
4.534,0.08,0.04,0.07,0.11
4.544,0.07,0.0,0.14,0.16
4.554,0.06,-0.01,0.16,0.17
4.564,0.1,-0.05,0.09,0.14
4.574,0.12,-0.09,0.08,0.17
4.585,0.07,-0.09,0.08,0.14
4.595,0.04,-0.09,0.07,0.12
4.605,0.04,-0.07,0.06,0.1
4.615,0.09,-0.06,0.07,0.13
4.625,0.12,-0.05,0.03,0.14
4.635,0.09,-0.08,0.03,0.12
4.645,0.08,-0.05,0.03,0.1
4.655,0.09,-0.02,0.04,0.1
4.665,0.1,-0.02,0.02,0.11
4.675,0.09,-0.0,0.02,0.09
4.685,0.1,0.01,0.04,0.11
4.695,0.16,0.02,0.07,0.18
4.706,0.15,-0.02,-0.02,0.15
4.716,0.13,-0.01,0.01,0.13
4.726,0.13,0.06,0.08,0.16
4.736,0.13,0.1,0.03,0.16
4.746,0.08,0.08,-0.04,0.12
4.756,0.02,0.06,-0.08,0.1
4.766,-0.0,0.08,-0.05,0.09
4.776,0.03,0.07,-0.06,0.1
4.786,0.06,0.05,-0.09,0.12
4.796,0.08,0.03,-0.09,0.12
4.806,0.08,0.02,-0.05,0.09
4.816,0.05,0.03,-0.0,0.06
4.826,0.06,0.02,0.04,0.07
4.837,0.05,-0.01,0.06,0.08
4.847,0.07,-0.05,0.03,0.09
4.857,0.05,-0.08,0.01,0.09
4.867,0.02,-0.12,0.01,0.12
4.877,0.04,-0.13,0.04,0.14
4.887,0.06,-0.13,0.07,0.16
4.897,0.03,-0.11,0.08,0.14
4.907,0.03,-0.08,0.14,0.16
4.917,0.03,-0.08,0.21,0.22
4.927,0.12,-0.05,0.12,0.18
4.937,0.13,-0.1,0.07,0.17
4.947,-0.12,-0.05,0.01,0.13
4.957,0.04,-0.03,-0.04,0.06
4.967,0.22,-0.02,0.08,0.24
4.978,0.19,0.02,0.05,0.2
4.988,0.13,0.04,0.03,0.14
4.998,0.11,0.06,0.06,0.14
5.008,0.14,0.09,0.01,0.16
5.018,0.1,0.05,-0.06,0.13
5.028,0.03,0.02,-0.09,0.1
5.038,-0.02,0.02,-0.07,0.07
5.048,0.0,0.06,-0.06,0.09
5.058,0.05,0.1,-0.05,0.12
5.068,0.06,0.14,-0.02,0.15
5.078,0.05,0.13,-0.01,0.14
5.088,0.03,0.09,-0.02,0.1
5.098,0.03,0.09,-0.03,0.1
5.108,0.06,0.06,-0.08,0.11
5.119,0.09,-0.0,-0.13,0.16
5.128,0.09,-0.02,-0.17,0.2
5.139,0.07,-0.03,-0.14,0.16
5.149,0.06,-0.02,-0.05,0.08
5.159,0.05,0.01,0.02,0.05
5.169,0.08,0.03,0.04,0.1
5.179,0.1,0.01,0.09,0.14
5.189,0.08,-0.02,0.14,0.16
5.199,0.06,-0.05,0.13,0.16
5.209,0.06,-0.11,0.14,0.18
5.219,0.1,-0.11,0.14,0.2
5.229,0.11,-0.09,0.16,0.21
5.24,0.14,-0.06,0.17,0.23
5.25,0.18,-0.05,0.18,0.26
5.26,0.14,-0.06,0.17,0.22
5.27,0.11,-0.08,0.12,0.18
5.28,0.08,-0.11,0.05,0.14
5.29,0.05,-0.14,0.02,0.15
5.3,0.01,-0.14,-0.01,0.14
5.31,0.01,-0.1,-0.01,0.1
5.32,0.07,-0.06,0.05,0.1
5.33,0.1,-0.02,0.06,0.12
5.34,0.11,-0.02,-0.0,0.11
5.35,0.1,-0.03,-0.04,0.11
5.36,0.04,-0.02,-0.08,0.09
5.37,-0.0,-0.01,-0.07,0.07
5.381,0.01,0.02,-0.05,0.05
5.391,0.05,0.08,-0.02,0.1
5.401,0.06,0.13,-0.02,0.15
5.411,0.06,0.14,0.0,0.16
5.421,0.08,0.1,0.04,0.13
5.431,0.08,0.08,0.01,0.11
5.441,0.05,0.05,-0.06,0.1
5.451,-0.01,-0.02,-0.07,0.08
5.461,0.04,-0.07,-0.06,0.09
5.471,0.08,-0.05,-0.03,0.1
5.481,0.08,-0.01,0.08,0.12
5.491,0.06,0.0,0.06,0.09
5.501,0.08,-0.04,0.1,0.14
5.511,0.16,-0.08,0.07,0.19
5.521,0.12,-0.09,0.04,0.15
5.532,0.03,-0.07,0.06,0.1
5.542,0.03,-0.04,0.07,0.08
5.552,0.12,-0.04,0.02,0.13
5.562,0.13,-0.0,0.05,0.14
5.572,0.11,0.05,0.06,0.14
5.582,0.05,0.02,0.05,0.07
5.592,0.06,-0.03,0.05,0.09
5.602,0.11,-0.03,0.04,0.12
5.612,0.09,-0.03,-0.0,0.1
5.622,0.05,-0.05,-0.01,0.08
5.632,0.09,-0.06,-0.04,0.11
5.642,0.1,-0.03,-0.0,0.11
5.653,0.08,0.0,-0.0,0.08
5.662,0.08,0.01,-0.03,0.09
5.673,0.08,-0.02,-0.03,0.09
5.683,0.03,0.0,0.01,0.03
5.693,0.0,0.01,0.05,0.05
5.703,0.04,-0.01,0.14,0.15
5.713,0.1,0.02,0.09,0.14
5.723,0.1,0.02,0.07,0.13
5.733,0.09,0.02,0.06,0.11
5.743,0.09,-0.02,0.0,0.09
5.753,0.04,-0.09,-0.03,0.1
5.763,0.01,-0.09,-0.07,0.11
5.774,0.02,-0.06,-0.13,0.15
5.784,0.05,-0.05,-0.09,0.12
5.793,0.06,0.0,-0.04,0.07
5.804,0.07,0.06,0.03,0.09
5.814,0.11,0.09,0.08,0.16
5.824,0.14,0.08,0.09,0.18
5.834,0.12,0.07,0.07,0.15
5.844,0.07,0.03,0.08,0.11
5.854,0.07,-0.02,0.07,0.1
5.864,0.11,-0.06,0.05,0.13
5.874,0.09,-0.06,0.06,0.13
5.884,0.04,-0.03,0.07,0.09
5.894,0.07,-0.01,0.1,0.12
5.904,0.13,-0.04,0.1,0.17
5.914,0.16,-0.06,0.01,0.17
5.925,0.11,-0.05,-0.03,0.12
5.935,0.04,-0.06,0.05,0.08
5.945,0.05,-0.05,0.07,0.1
5.954,0.11,-0.09,-0.04,0.15
5.965,0.13,-0.09,-0.08,0.17
5.975,0.12,-0.05,-0.01,0.12
5.985,0.06,0.0,0.07,0.09
5.995,0.03,0.04,0.02,0.05
6.005,0.02,0.03,-0.01,0.04
6.015,0.06,0.02,-0.04,0.08
6.025,0.04,0.01,0.02,0.05
6.035,0.02,0.03,0.02,0.04
6.045,0.04,0.03,-0.04,0.07
6.056,0.07,0.03,-0.01,0.07
6.065,0.1,0.03,0.07,0.13
6.076,0.11,0.02,0.08,0.14
6.086,0.09,0.01,0.05,0.11
6.096,0.09,-0.02,0.0,0.1
6.106,0.11,-0.05,0.0,0.12
6.116,0.1,-0.04,0.02,0.11
6.126,0.08,-0.01,-0.03,0.08
6.136,0.08,-0.01,0.01,0.08
6.146,0.13,0.02,0.05,0.14
6.156,0.12,0.04,0.05,0.14
6.166,0.08,0.02,0.04,0.1
6.176,0.08,-0.02,0.04,0.1
6.186,0.08,-0.03,0.03,0.1
6.196,0.06,-0.04,0.01,0.08
6.206,0.03,-0.06,0.01,0.07
6.217,0.06,-0.05,0.02,0.08
6.227,0.1,-0.06,0.01,0.11
6.237,0.08,-0.04,0.03,0.09
6.247,0.07,-0.02,0.05,0.09
6.257,0.1,-0.0,0.07,0.12
6.267,0.12,0.02,0.04,0.13
6.277,0.09,-0.01,0.03,0.1
6.287,0.04,-0.03,0.06,0.07
6.297,0.04,0.01,0.06,0.07
6.307,0.04,0.0,0.03,0.05
6.317,0.06,-0.01,-0.02,0.06
6.327,0.07,-0.02,-0.05,0.09
6.338,0.1,-0.03,-0.07,0.13
6.348,0.12,-0.01,-0.04,0.13
6.358,0.1,0.04,-0.07,0.13
6.368,0.06,0.06,-0.05,0.09
6.378,0.08,0.08,0.01,0.12
6.388,0.08,0.06,0.03,0.1
6.398,0.03,0.04,0.03,0.06
6.408,0.03,0.02,0.01,0.04
6.418,0.03,-0.02,0.01,0.04
6.428,0.06,-0.06,0.01,0.08
6.438,0.08,-0.09,-0.05,0.13
6.448,0.06,-0.1,-0.0,0.12
6.458,0.08,-0.06,0.07,0.12
6.469,0.11,-0.03,0.13,0.18
6.478,0.13,0.0,0.16,0.21
6.488,0.15,0.01,0.16,0.22
6.499,0.15,-0.03,0.16,0.22
6.509,0.1,-0.03,0.19,0.22
6.519,0.04,-0.02,0.11,0.12
6.529,-0.01,-0.08,0.0,0.08
6.539,0.06,-0.12,-0.05,0.14
6.549,0.09,-0.11,-0.06,0.15
6.559,0.01,-0.09,-0.03,0.09
6.569,0.0,-0.03,-0.01,0.03
6.579,0.08,0.03,-0.01,0.09
6.589,0.13,0.03,-0.01,0.13
6.599,0.09,0.04,-0.03,0.1
6.609,0.04,0.06,-0.02,0.07
6.619,0.05,0.06,0.01,0.07
6.629,0.05,0.03,-0.01,0.06
6.64,0.05,0.01,-0.03,0.06
6.65,0.05,-0.01,-0.01,0.05
6.66,0.06,-0.01,0.03,0.06
6.67,0.09,-0.01,0.02,0.09
6.68,0.09,-0.02,-0.01,0.1
6.69,0.07,-0.02,-0.02,0.08
6.7,0.06,-0.0,0.02,0.06
6.71,0.08,0.01,0.01,0.08
6.72,0.1,0.02,0.03,0.11
6.73,0.12,0.0,0.09,0.15
6.74,0.12,0.01,0.08,0.14
6.75,0.1,0.02,0.09,0.14
6.76,0.1,-0.01,0.06,0.12
6.771,0.07,-0.03,0.05,0.09
6.781,0.07,-0.03,0.03,0.08
6.791,0.07,-0.06,-0.0,0.09
6.801,0.08,-0.07,-0.0,0.11
6.811,0.11,-0.06,-0.0,0.13
6.821,0.12,-0.06,-0.0,0.13
6.831,0.09,-0.02,0.02,0.09
6.841,0.05,0.02,0.06,0.08
6.851,0.07,0.04,0.04,0.09
6.861,0.07,0.03,-0.02,0.08
6.871,0.04,0.03,-0.03,0.05
6.882,0.02,0.04,-0.0,0.04
6.891,0.05,0.01,-0.01,0.05
6.902,0.09,-0.02,-0.02,0.09
6.912,0.07,-0.01,-0.03,0.08
6.922,0.05,0.02,-0.02,0.06
6.932,0.07,0.02,-0.05,0.08
6.942,0.06,0.0,-0.06,0.09
6.952,0.01,0.01,-0.03,0.03
6.962,0.02,0.03,-0.03,0.05
6.972,0.06,0.01,-0.03,0.07
6.982,0.09,-0.01,-0.01,0.1
6.992,0.12,-0.01,0.01,0.12
7.002,0.11,-0.01,0.06,0.13
7.012,0.09,-0.01,0.04,0.1
7.022,0.07,-0.02,0.05,0.09
7.032,0.07,-0.02,0.08,0.11
7.042,0.09,-0.02,0.08,0.12
7.053,0.1,-0.03,0.07,0.13
7.063,0.11,-0.03,0.09,0.14
7.073,0.1,-0.04,0.07,0.13
7.083,0.08,-0.09,0.07,0.14
7.093,0.07,-0.11,0.05,0.14
7.103,0.07,-0.12,0.01,0.14
7.113,0.04,-0.17,-0.03,0.17
7.123,0.01,-0.15,0.02,0.15
7.133,0.03,-0.07,0.03,0.08
7.143,0.07,-0.03,0.07,0.11
7.153,0.09,-0.0,0.13,0.16
7.163,0.11,0.03,0.12,0.16
7.174,0.1,0.07,0.1,0.15
7.183,0.05,0.05,-0.0,0.07
7.194,-0.01,-0.01,-0.04,0.04
7.204,-0.02,0.0,-0.09,0.09
7.214,0.0,0.02,-0.11,0.11
7.224,0.03,0.02,-0.05,0.07
7.234,0.07,0.07,-0.02,0.1
7.244,0.09,0.06,-0.0,0.11
7.254,0.09,0.02,-0.02,0.09
7.264,0.09,-0.0,-0.02,0.09
7.274,0.08,-0.02,-0.03,0.09
7.284,0.1,-0.03,-0.04,0.12
7.294,0.11,-0.03,-0.07,0.14
7.304,0.08,-0.03,-0.0,0.08
7.314,0.08,0.01,0.03,0.08
7.324,0.11,0.03,0.03,0.11
7.335,0.11,0.03,0.09,0.15
7.345,0.12,0.0,0.12,0.17
7.355,0.12,-0.0,0.12,0.17
7.365,0.12,-0.02,0.12,0.17
7.375,0.12,-0.03,0.12,0.17
7.385,0.13,-0.05,0.06,0.15
7.395,0.09,-0.1,0.08,0.15
7.405,0.06,-0.11,0.1,0.15
7.415,0.08,-0.11,0.07,0.15
7.425,0.1,-0.1,0.06,0.15
7.435,0.1,-0.07,0.05,0.13
7.446,0.07,-0.04,0.1,0.13
7.455,0.06,-0.01,0.11,0.13
7.466,0.05,0.0,0.06,0.08
7.476,0.04,-0.01,-0.02,0.04
7.486,0.01,-0.05,-0.06,0.08
7.496,0.0,-0.06,-0.1,0.11
7.506,0.01,-0.03,-0.11,0.12
7.516,0.05,0.01,-0.09,0.1
7.526,0.07,0.05,-0.05,0.1
7.536,0.05,0.1,0.03,0.12
7.546,0.06,0.14,0.07,0.16
7.556,0.07,0.11,0.03,0.14
7.566,0.07,0.05,-0.02,0.09
7.576,0.08,0.0,-0.05,0.09
7.587,0.11,-0.0,-0.03,0.11
7.597,0.15,0.0,-0.05,0.16
7.607,0.16,0.01,-0.04,0.16
7.617,0.13,0.03,0.02,0.14
7.627,0.12,0.07,0.03,0.15
7.637,0.11,0.09,0.04,0.14
7.647,0.06,0.06,0.04,0.1
7.657,0.05,0.03,0.06,0.08
7.667,0.07,0.01,0.08,0.1
7.677,0.08,-0.0,0.07,0.11
7.687,0.1,-0.03,0.06,0.12
7.697,0.14,-0.06,0.03,0.16
7.707,0.16,-0.1,0.04,0.19
7.718,0.15,-0.1,0.03,0.18
7.728,0.11,-0.08,0.01,0.14
7.738,0.04,-0.08,0.03,0.1
7.748,0.01,-0.07,0.07,0.1
7.758,0.01,-0.03,0.04,0.06
7.768,0.01,-0.03,0.02,0.03
7.778,0.01,-0.04,0.02,0.05
7.788,0.0,-0.04,0.03,0.05
7.798,-0.0,-0.02,-0.02,0.03
7.808,0.01,-0.04,-0.06,0.08
7.818,0.02,-0.03,-0.06,0.07
7.828,0.03,-0.01,0.01,0.04
7.839,0.05,0.02,0.03,0.06
7.848,0.04,0.05,-0.02,0.07
7.859,0.05,0.05,0.02,0.07
7.869,0.07,0.05,0.06,0.1
7.879,0.04,0.05,0.12,0.14
7.889,0.03,0.07,0.06,0.1
7.899,0.06,0.02,0.0,0.07
7.909,0.1,-0.02,-0.01,0.11
7.919,0.12,-0.02,-0.03,0.12
7.929,0.11,-0.05,-0.09,0.15
7.939,0.08,-0.07,-0.11,0.16
7.949,0.08,-0.07,-0.05,0.12
7.959,0.06,-0.0,0.02,0.06
7.969,0.05,0.03,0.01,0.06
7.979,0.06,0.01,0.05,0.08
7.989,0.11,0.02,0.07,0.13
8.0,0.13,0.0,0.04,0.14
8.009,0.1,-0.03,-0.0,0.1
8.02,0.07,-0.03,0.02,0.08
8.03,0.06,-0.0,0.07,0.09
8.04,0.06,0.01,0.05,0.08
8.05,0.06,-0.01,0.03,0.07
8.06,0.08,-0.03,0.0,0.09
8.07,0.08,-0.03,0.05,0.09
8.08,0.05,-0.01,0.08,0.1
8.09,0.05,0.0,0.03,0.06
8.1,0.11,-0.02,0.01,0.11
8.11,0.12,-0.04,0.04,0.13
8.121,0.07,0.01,0.06,0.09
8.131,0.03,0.0,0.02,0.03
8.14,0.01,-0.02,-0.0,0.02
8.151,0.01,-0.01,-0.02,0.02
8.161,0.01,-0.01,-0.02,0.02
8.171,0.01,-0.03,-0.02,0.04
8.181,0.05,-0.01,-0.04,0.06
8.191,0.1,-0.01,-0.06,0.11
8.201,0.11,-0.02,0.0,0.11
8.211,0.09,-0.0,0.01,0.09
8.221,0.08,0.01,-0.0,0.08
8.231,0.07,-0.01,0.01,0.08
8.241,0.06,-0.03,0.01,0.07
8.252,0.07,-0.03,0.04,0.08
8.261,0.11,-0.01,0.04,0.12
8.272,0.1,-0.01,0.02,0.1
8.282,0.09,-0.03,-0.0,0.1
8.292,0.07,-0.04,0.03,0.08
8.302,0.05,-0.0,0.09,0.1
8.312,0.06,0.02,0.07,0.09
8.322,0.09,-0.02,0.04,0.1
8.332,0.11,-0.03,0.05,0.13
8.342,0.08,-0.03,0.05,0.1
8.352,0.07,-0.05,0.09,0.12
8.362,0.08,-0.04,0.11,0.15
8.372,0.13,-0.03,0.07,0.15
8.382,0.15,-0.03,0.04,0.16
8.392,0.12,-0.05,0.01,0.13
8.403,0.08,-0.07,-0.01,0.11
8.412,0.03,-0.07,-0.01,0.08
8.423,0.02,-0.07,-0.01,0.08
8.433,0.06,-0.07,-0.02,0.1
8.443,0.08,-0.06,0.01,0.1
8.453,0.07,-0.0,0.03,0.08
8.463,0.04,0.01,0.04,0.06
8.473,0.05,-0.01,0.02,0.06
8.483,0.06,-0.03,0.01,0.07
8.493,0.03,-0.01,0.05,0.06
8.503,0.03,0.0,0.04,0.05
8.513,0.04,0.02,0.04,0.06
8.523,0.09,0.04,0.06,0.11
8.533,0.09,0.02,0.05,0.11
8.543,0.1,-0.01,0.02,0.11
8.553,0.11,-0.04,0.03,0.13
8.564,0.13,-0.08,-0.03,0.15
8.574,0.12,-0.11,-0.06,0.17
8.584,0.1,-0.11,-0.04,0.16
8.594,0.14,-0.06,-0.02,0.15
8.604,0.15,-0.02,0.02,0.15
8.614,0.13,0.04,0.07,0.15
8.624,0.11,0.08,0.09,0.17
8.634,0.08,0.08,0.13,0.17
8.644,0.05,0.08,0.12,0.15
8.654,0.05,0.05,0.1,0.12
8.664,0.05,-0.01,0.08,0.09
8.675,0.06,-0.03,0.01,0.07
8.685,0.04,-0.05,-0.06,0.09
8.695,0.04,-0.04,-0.08,0.1
8.705,0.05,-0.02,-0.09,0.11
8.715,0.06,0.01,-0.06,0.09
8.725,0.08,0.04,-0.04,0.1
8.735,0.11,0.06,-0.0,0.13
8.745,0.08,0.07,0.02,0.11
8.755,0.08,0.06,0.02,0.1
8.765,0.04,0.03,0.01,0.05
8.775,0.0,-0.03,0.03,0.04
8.785,0.03,-0.06,0.05,0.08
8.795,0.05,-0.08,0.02,0.1
8.805,0.1,-0.09,0.03,0.13
8.816,0.15,-0.08,0.04,0.18
8.826,0.03,-0.06,0.12,0.14
8.836,0.02,-0.05,0.07,0.09
8.846,0.07,-0.08,0.02,0.1
8.856,0.11,-0.06,-0.03,0.13
8.866,0.04,-0.04,-0.05,0.08
8.876,-0.02,-0.03,0.03,0.04
8.886,0.09,0.05,0.02,0.11
8.896,0.14,0.06,-0.02,0.16
8.906,0.11,0.05,-0.01,0.12
8.916,0.05,0.09,0.01,0.1
8.926,0.05,0.1,-0.0,0.12
8.937,0.09,0.05,-0.04,0.11
8.946,0.07,0.02,-0.04,0.08
8.957,0.07,0.0,-0.03,0.08
8.967,0.09,-0.01,-0.0,0.09
8.977,0.12,0.01,0.06,0.13
8.987,0.12,0.03,0.07,0.14
8.997,0.11,0.05,0.07,0.14
9.007,0.12,0.0,0.05,0.13
9.017,0.11,-0.05,0.02,0.12
9.027,0.11,-0.06,-0.01,0.13
9.037,0.13,-0.08,0.02,0.15
9.047,0.13,-0.09,0.08,0.18
9.057,0.25,-0.06,0.05,0.27
9.067,0.21,-0.02,0.01,0.21
9.077,0.03,0.09,0.13,0.16
9.088,-0.01,0.05,0.29,0.3
9.098,0.18,0.05,0.09,0.2
9.108,0.02,-0.05,-0.6,0.6
9.118,-0.14,-0.23,0.0,0.28
9.128,0.04,-0.08,0.43,0.44
9.138,0.06,-0.01,0.13,0.15
9.148,0.0,-0.08,0.14,0.17
9.158,0.01,-0.05,0.12,0.13
9.168,0.14,0.03,0.12,0.18
9.178,0.18,0.1,0.11,0.23
9.188,-0.01,0.14,0.06,0.15
9.198,-0.16,0.22,-0.24,0.36
9.208,-0.01,-0.03,-0.42,0.42
9.218,0.09,-0.15,-0.18,0.25
