time,ax,ay,az,atotal
0.00361,0.0546,-0.1023,0.8209,0.829
0.025102,-0.0229,0.0926,2.0152,2.017
0.026278,-0.2018,0.3366,2.6235,2.653
0.02832,-0.3791,0.3654,2.5877,2.641
0.045009,-0.4455,0.1788,2.0038,2.061
0.05964,-0.3126,-0.0771,1.2115,1.254
0.060392,-0.2086,-0.495,0.0258,0.538
0.069674,0.0553,-0.6198,-0.9538,1.139
0.077941,0.0956,-0.2936,-1.5195,1.551
0.089754,0.0927,0.0404,-1.5183,1.522
0.098878,-0.1062,0.3147,-0.9377,0.995
0.109086,-0.3302,0.4997,-0.1293,0.613
0.118334,-0.3834,0.5432,0.6379,0.921
0.127995,-0.4492,0.3879,1.192,1.332
0.137582,-0.3659,0.1968,1.4039,1.464
0.147708,-0.2459,-0.0213,1.1216,1.148
0.157499,0.0389,-0.2524,0.5009,0.562
0.167853,0.2737,-0.334,-0.1163,0.447
0.179046,0.2858,-0.2256,-0.5368,0.649
0.190663,0.17,-0.1223,-0.6315,0.665
0.198344,0.0819,-0.0692,-0.4074,0.421
0.207906,0.0609,-0.0901,-0.0192,0.11
0.217556,0.0113,-0.0337,0.4002,0.402
0.227891,-0.1241,0.0965,0.4758,0.501
0.237568,-0.1769,-0.0844,0.2155,0.291
0.247864,-0.0741,-0.1964,-0.1573,0.262
0.258337,0.0363,-0.1467,-0.4185,0.445
0.269026,0.0855,-0.0253,-0.44,0.449
0.27793,0.0869,0.0194,-0.2353,0.252
0.287762,0.0371,0.0315,0.0275,0.056
0.298008,0.0239,0.0421,0.0969,0.108
0.308372,-0.0305,0.0245,0.1492,0.154
0.323456,-0.1168,-0.0055,0.3086,0.33
0.328208,-0.1683,-0.0438,0.4224,0.457
0.338716,-0.1463,-0.097,0.3301,0.374
0.348277,-0.0845,-0.1789,-0.0456,0.203
0.358035,0.0418,-0.1345,-0.3001,0.331
0.367868,0.0332,-0.0431,-0.3561,0.36
0.377835,-0.0576,-0.0123,-0.2491,0.256
0.387891,-0.0968,0.044,0.0258,0.109
0.397822,-0.1262,0.0643,0.2265,0.267
0.409355,-0.1055,0.037,0.2898,0.311
0.423356,-0.0724,-0.0415,0.3486,0.358
0.427779,-0.002,-0.1695,0.2821,0.329
0.439023,0.0503,-0.1946,0.0274,0.203
0.447798,0.0639,-0.0651,-0.1652,0.189
0.458102,0.0527,-0.0204,-0.1281,0.14
0.467879,-0.0083,-0.0583,0.0359,0.069
0.477863,0.0109,-0.0846,0.1658,0.187
0.488364,0.0371,-0.0918,0.2359,0.256
0.49781,0.0745,-0.0579,0.3246,0.338
0.508211,0.0388,-0.0205,0.3118,0.315
0.525967,-0.0634,-0.0425,0.1243,0.146
0.527957,-0.0642,-0.1573,-0.0487,0.177
0.539429,-0.0173,-0.2107,-0.2253,0.309
0.547912,-0.0148,-0.113,-0.2982,0.319
0.557803,-0.0495,0.0358,-0.1493,0.161
0.567749,-0.1614,0.072,0.01,0.177
0.577803,-0.1751,0.058,0.1011,0.21
0.588493,-0.073,0.0464,0.1567,0.179
0.605222,-0.0052,-0.0206,0.1078,0.11
0.608276,0.0483,-0.121,-0.0016,0.13
0.631758,0.1091,-0.1654,-0.0713,0.211
0.63375,0.1296,-0.1647,-0.0902,0.228
0.638134,0.0742,-0.1054,0.053,0.139
0.650531,0.0575,-0.024,0.2975,0.304
0.658723,-0.0568,0.0487,0.3158,0.325
0.668018,-0.0507,0.0342,0.1749,0.185
0.677808,0.0058,-0.0128,-0.0415,0.044
0.687847,-0.0224,-0.0588,-0.1194,0.135
0.710897,0.014,-0.0103,0.1232,0.124
0.713057,0.0129,0.011,0.0878,0.089
0.741797,0.0588,-0.0298,-0.0293,0.072
0.743554,0.0808,-0.0651,-0.0975,0.142
0.744452,0.0419,-0.0505,0.0171,0.068
0.759959,-0.041,0.0027,0.1146,0.122
0.762595,-0.1283,0.062,0.143,0.202
0.779054,-0.1641,0.0674,0.085,0.197
0.781173,-0.0973,-0.0054,0.016,0.099
0.788082,-0.0148,-0.0459,0.0619,0.078
0.7979,0.0376,-0.0583,0.0622,0.093
0.808196,0.0288,-0.0329,0.0188,0.048
0.822608,0.0084,-0.041,-0.0681,0.08
0.84786,-0.0146,-0.0467,-0.0856,0.099
0.849735,0.0027,-0.033,-0.0569,0.066
0.850693,-0.0136,0.0549,0.1006,0.115
0.857833,-0.1139,0.1427,0.2232,0.288
0.867942,-0.1258,0.1303,0.2465,0.306
0.877933,-0.0017,0.0545,0.1072,0.12
0.887992,0.022,-0.0547,0.1396,0.152
0.903662,0.0036,-0.1146,0.1617,0.198
0.908942,-0.0149,-0.1059,0.1401,0.176
0.92976,-0.0287,-0.0512,0.0563,0.081
0.93181,-0.0696,0.0455,-0.0207,0.086
0.93785,-0.1293,0.1053,-0.0531,0.175
0.949193,-0.0854,0.0247,-0.0188,0.091
0.957896,-0.0145,-0.0482,0.0351,0.061
0.968315,0.0546,-0.0637,0.0528,0.099
0.979504,0.0768,-0.0437,0.1172,0.147
0.988012,0.0236,-0.0593,0.2102,0.22
0.997998,0.0198,-0.0603,0.219,0.228
1.007928,0.0702,-0.1244,0.1159,0.184
1.018562,0.089,-0.1293,-0.0284,0.16
1.05303,0.0424,-0.0437,-0.073,0.095
1.054897,-0.0175,0.0208,-0.0187,0.033
1.055736,-0.1264,0.0479,0.0459,0.143
1.058203,-0.1545,0.0489,0.0558,0.171
1.071104,-0.1381,0.0165,0.0634,0.153
1.089468,-0.0909,-0.047,0.0492,0.114
1.091392,-0.0103,-0.1097,0.0781,0.135
1.108936,0.0469,-0.1343,0.1402,0.2
1.11116,0.08,-0.1137,0.1957,0.24
1.118679,0.0686,-0.1169,0.1545,0.206
1.136976,0.0615,-0.106,0.0449,0.13
1.138929,0.0445,-0.0536,-0.0249,0.074
1.155175,0.0036,-0.0425,-0.0388,0.058
1.158525,-0.0554,-0.0176,-0.0199,0.061
1.173377,-0.0875,0.0273,-0.0246,0.095
1.184272,-0.0498,0.0405,0.0115,0.065
1.188129,-0.0313,-0.0042,0.0751,0.082
1.200097,-0.011,-0.0728,0.1433,0.161
1.225742,-0.0037,-0.1639,0.1497,0.222
1.227879,0.0406,-0.2038,0.1279,0.244
1.228859,0.0438,-0.1399,0.0633,0.16
1.237739,0.0228,-0.0964,-0.0456,0.109
1.247806,-0.0514,-0.0072,-0.0799,0.095
1.258763,-0.0927,0.0588,0.0018,0.11
1.268402,-0.1356,0.069,0.0331,0.156
1.277805,-0.1038,0.0318,-0.0073,0.109
1.287815,-0.0208,0.0116,-0.1064,0.109
1.299762,0.0101,0.004,0.1027,0.103
1.324636,-0.0232,-0.0299,0.249,0.252
1.326889,-0.0583,-0.0371,0.2542,0.263
1.327998,0.0068,-0.0642,0.1183,0.135
1.337854,0.0754,-0.0797,-0.0356,0.115
1.348124,0.107,-0.066,-0.0714,0.145
1.360475,0.0666,-0.0644,-0.0036,0.093
1.367852,-0.0152,-0.0139,0.0383,0.044
1.377812,-0.0764,0.0393,0.0696,0.111
1.388178,-0.1447,0.092,0.0853,0.192
1.397993,-0.1386,0.1521,0.1095,0.233
1.418936,-0.1204,0.1174,0.136,0.216
1.420511,-0.0676,0.0669,0.124,0.156
1.430448,0.0038,-0.0205,0.0552,0.059
1.437905,0.0324,-0.0685,0.0052,0.076
1.447999,0.0356,-0.0941,-0.0199,0.103
1.458462,0.0247,-0.0911,-0.0195,0.096
1.467846,0.0231,-0.1089,-0.0161,0.113
1.477828,0.0428,-0.0989,-0.0188,0.109
1.488271,0.0368,-0.0761,-0.0396,0.093
1.498948,0.043,0.0349,0.0404,0.069
1.523163,-0.0311,0.1362,0.1815,0.229
1.5254,-0.1694,0.1667,0.2169,0.322
1.52799,-0.1413,0.1143,0.1555,0.239
1.538161,-0.0135,0.0198,0.1048,0.107
1.548413,0.0324,0.0176,0.1699,0.174
1.559782,-0.0344,0.0532,0.2372,0.245
1.568057,-0.0956,0.0228,0.1581,0.186
1.578055,-0.0283,-0.0778,-0.0488,0.096
1.596107,0.0156,-0.0913,-0.2511,0.268
1.598917,-0.012,-0.0214,-0.3486,0.35
1.620896,-0.0475,0.0592,-0.2839,0.294
1.623471,-0.0875,0.1038,-0.0734,0.154
1.628265,-0.1517,0.1004,0.1669,0.247
1.639539,-0.0418,0.102,0.2852,0.306
1.64809,-0.0106,-0.0004,0.3159,0.316
1.658556,-0.0007,-0.0921,0.2327,0.25
1.668394,0.0769,-0.1027,0.0969,0.161
1.678005,0.1383,-0.1416,-0.0357,0.201
1.694501,0.0961,-0.1584,-0.0112,0.186
1.697981,0.0863,-0.1102,0.1112,0.179
1.720038,0.0112,-0.0638,0.1192,0.136
1.722066,-0.0464,0.0065,0.0204,0.051
1.727847,-0.072,0.095,-0.0115,0.12
1.737793,-0.1161,0.129,0.0491,0.18
1.747749,-0.1856,0.1009,0.0695,0.222
1.758667,-0.1338,0.0523,0.0612,0.156
1.769056,-0.0221,0.0005,0.0594,0.063
1.777832,0.069,-0.0636,0.0276,0.098
1.792242,0.0789,-0.048,0.0259,0.096
1.798675,0.0761,-0.0478,0.0604,0.108
1.812643,0.0596,-0.023,0.1168,0.133
1.818146,0.0213,-0.0303,0.167,0.171
1.827903,0.0002,-0.0225,0.1747,0.176
1.840528,-0.0556,0.0049,0.1099,0.123
1.848021,-0.1163,0.0103,-0.0172,0.118
1.85783,-0.1054,-0.0309,-0.1294,0.17
1.871125,-0.0572,-0.039,-0.0887,0.112
1.878533,-0.027,0.0044,0.0617,0.067
1.887832,-0.0385,0.013,0.1453,0.151
1.897793,-0.0497,-0.0045,0.1338,0.143
1.907935,-0.0201,-0.0489,0.0402,0.066
1.927862,0.0234,-0.0998,-0.0261,0.106
1.929082,0.065,-0.1373,-0.0227,0.154
1.943392,0.0535,-0.101,0.0602,0.129
1.94817,-0.0411,-0.0624,0.1472,0.165
1.963387,-0.0927,-0.0199,0.2473,0.265
1.97935,-0.102,-0.0197,0.2476,0.269
1.980793,-0.0915,-0.0284,0.1546,0.182
1.989303,-0.0746,-0.004,0.0186,0.077
1.997964,-0.0837,0.027,-0.0953,0.13
2.00789,-0.0503,0.0668,-0.1285,0.153
2.027709,-0.0909,0.0371,-0.1274,0.161
2.02904,-0.0894,0.0027,-0.1028,0.136
2.038744,-0.0601,-0.0531,-0.0845,0.117
2.04786,-0.0369,-0.0871,-0.0475,0.106
2.058927,0.0361,-0.0433,0.0748,0.094
2.068301,0.0544,-0.0368,0.2398,0.249
2.078284,0.006,-0.0461,0.2491,0.253
2.087727,0.0307,-0.0673,0.1804,0.195
2.097989,0.0444,-0.095,0.081,0.133
2.108423,-0.0386,-0.0477,-0.0636,0.088
2.133213,-0.1021,0.0168,-0.0612,0.12
2.13529,-0.1514,0.0642,-0.0241,0.166
2.137994,-0.1556,0.101,0.0189,0.186
2.147985,-0.0787,0.0926,0.072,0.141
2.158443,-0.032,0.0537,0.1176,0.133
2.171553,-0.0342,0.0341,0.1519,0.159
2.177773,-0.0582,0.0382,0.1195,0.138
2.187789,0.0088,-0.0154,0.0923,0.094
2.198031,0.0265,-0.1043,0.0615,0.124
2.208424,0.0349,-0.1527,0.0223,0.158
2.229904,0.05,-0.1421,0.1213,0.193
2.232347,0.0262,-0.1018,0.2039,0.229
2.238198,-0.0448,-0.0402,0.1492,0.161
2.24947,-0.0568,0.0022,0.0784,0.097
2.25816,-0.0591,0.038,0.0926,0.116
2.267952,-0.0682,-0.0065,0.077,0.103
2.278154,-0.0234,-0.0843,0.0075,0.088
2.287813,0.0457,-0.1483,-0.051,0.163
2.303794,0.0676,-0.1665,-0.0659,0.191
2.308441,0.0945,-0.1368,0.0068,0.166
2.324317,0.0818,-0.1192,0.0078,0.145
2.327929,0.0667,-0.1119,-0.0259,0.133
2.33802,0.0018,-0.0412,0.0388,0.057
2.352475,-0.0436,0.0126,0.033,0.056
2.358006,-0.0475,0.0221,-0.0112,0.054
2.367891,-0.0539,-0.0032,-0.0819,0.098
2.378056,-0.0172,0.0122,-0.076,0.079
2.388011,-0.0049,0.0482,0.0238,0.054
2.404952,-0.0983,0.0881,0.1276,0.184
2.408585,-0.1667,0.1167,0.2398,0.315
2.430901,-0.1709,0.1313,0.2881,0.36
2.433364,-0.1749,0.0987,0.1598,0.257
2.43857,-0.1007,-0.0145,-0.0158,0.103
2.447895,0.0205,-0.0567,-0.0489,0.078
2.458658,0.0569,-0.0205,0.0685,0.091
2.468084,0.0313,0.0037,0.2025,0.205
2.481442,-0.0004,-0.0071,0.1957,0.196
2.48814,0.0133,-0.0104,0.2263,0.227
2.498703,-0.008,-0.0085,0.2165,0.217
2.508064,-0.0424,-0.0446,0.0444,0.076
2.520027,0.0034,-0.1012,-0.1373,0.171
2.54569,0.0602,-0.1386,-0.178,0.233
2.547849,0.0141,-0.1369,-0.1364,0.194
2.549015,-0.0062,-0.0747,-0.0882,0.116
2.55797,-0.0237,0.0019,-0.0099,0.026
2.568719,-0.0974,0.0534,0.15,0.187
2.582328,-0.0915,0.1187,0.149,0.211
2.587942,-0.0614,0.0958,0.0959,0.149
2.597942,-0.0523,0.0684,0.0891,0.124
2.608379,-0.074,0.084,0.1853,0.216
2.620176,-0.1333,0.0409,0.1609,0.213
2.647231,-0.0894,0.024,0.0527,0.107
2.648784,-0.0288,-0.0104,-0.0029,0.031
2.649492,-0.0059,-0.0388,0.0232,0.046
2.657793,-0.0268,-0.0366,0.0508,0.068
2.667916,-0.0111,-0.0,0.0724,0.073
2.6791,-0.0032,-0.0033,0.0744,0.075
2.688161,0.004,-0.0148,0.088,0.089
2.69799,0.0061,-0.0494,0.0679,0.084
2.707913,0.0353,-0.091,0.0308,0.102
2.720323,0.0502,-0.0704,0.0441,0.097
2.734298,-0.0333,-0.0107,0.0454,0.057
2.747522,-0.0626,0.0072,0.0397,0.074
2.74937,-0.0814,0.0187,0.0022,0.084
2.757902,-0.0969,0.0776,0.0381,0.13
2.768304,-0.1253,0.1308,0.0837,0.2
2.783505,-0.1274,0.1013,0.0574,0.173
2.787973,-0.0783,0.0733,0.0237,0.11
2.798247,-0.014,0.0441,0.0939,0.105
2.821114,0.022,-0.0757,0.0798,0.112
2.824954,0.0559,-0.1398,0.0498,0.159
2.828843,0.0274,-0.1515,0.0496,0.162
2.848368,-0.016,-0.1252,0.0895,0.155
2.85047,-0.0226,-0.0756,0.0952,0.124
2.858408,-0.0369,-0.0211,0.0426,0.06
2.867891,-0.0569,0.0265,0.0417,0.075
2.882139,-0.0517,0.0742,0.1534,0.178
2.887877,-0.1229,0.0885,0.1849,0.239
2.898014,-0.1302,0.0731,0.1286,0.197
2.91641,-0.0645,0.0146,0.0068,0.066
2.918665,0.0056,-0.0222,-0.1068,0.109
2.941536,0.0574,-0.0799,-0.1208,0.156
2.94345,0.0857,-0.1236,-0.0791,0.17
2.948056,0.0916,-0.1407,-0.0095,0.168
2.959504,0.0852,-0.1395,0.0384,0.168
2.967905,0.0564,-0.1216,0.0763,0.154
2.978151,0.0617,-0.0994,0.0913,0.148
2.987979,-0.0004,-0.0746,0.1287,0.149
2.998154,-0.0688,-0.0085,0.1791,0.192
3.025847,-0.1234,0.0266,0.1369,0.186
3.027614,-0.1161,0.0346,0.0838,0.147
3.028883,-0.0735,0.0563,0.0966,0.134
3.037796,-0.0891,0.0246,0.069,0.115
3.047992,0.0101,-0.0436,0.0461,0.064
3.05868,0.0562,-0.0827,0.0241,0.103
3.067681,0.028,-0.0769,0.0417,0.092
3.078033,0.0119,-0.0513,0.0582,0.078
3.088419,0.003,-0.0183,0.052,0.055
3.098245,-0.0562,-0.0213,0.0565,0.082
3.123275,-0.0484,-0.0484,0.043,0.081
3.124788,-0.0143,-0.0662,-0.004,0.068
3.127925,0.0327,-0.0883,-0.0942,0.133
3.138686,0.027,-0.053,-0.0348,0.069
3.147811,-0.0558,-0.0035,0.0886,0.105
3.160312,-0.0818,0.0141,0.1981,0.215
3.168448,-0.0493,0.0211,0.239,0.245
3.179998,-0.0834,0.0263,0.122,0.15
3.195923,-0.1002,0.0155,-0.0093,0.102
3.197888,-0.0428,0.0445,-0.0754,0.097
3.224259,0.0014,-0.0041,-0.0744,0.075
3.226481,-0.0179,-0.0207,-0.0044,0.028
3.228018,-0.0031,-0.0875,0.0389,0.096
3.239522,0.0178,-0.1477,-0.0092,0.149
3.248036,0.0509,-0.131,-0.0618,0.154
3.257869,0.0324,-0.0682,0.0239,0.079
3.267927,-0.0333,-0.0311,0.1603,0.167
3.27909,-0.0899,0.0131,0.1802,0.202
3.296924,-0.0888,0.0336,0.1419,0.171
3.299825,-0.0792,0.0647,0.0755,0.127
3.324108,-0.0574,0.0564,-0.0178,0.082
3.326592,-0.0632,0.0271,-0.0787,0.105
3.328834,-0.043,0.0538,-0.0351,0.077
3.341423,-0.0322,0.065,0.0297,0.078
3.347765,-0.0532,0.0496,0.0649,0.097
3.358357,-0.0802,0.0263,0.0317,0.09
3.36797,-0.0402,-0.0143,-0.0087,0.044
3.377807,0.0091,-0.0408,-0.005,0.042
3.393402,0.0046,-0.0728,0.0059,0.073
3.397968,-0.0109,-0.0406,0.0157,0.045
3.417838,-0.0194,-0.0127,0.0338,0.041
3.41958,-0.0395,0.0296,0.0509,0.071
3.427731,-0.0977,0.0868,0.0778,0.152
3.43804,-0.1232,0.1251,0.0987,0.201
3.44788,-0.1332,0.1085,0.1159,0.207
3.458458,-0.1031,0.0773,0.0621,0.143
3.46847,-0.0359,0.0582,0.006,0.069
3.477974,0.0245,0.0312,0.053,0.066
3.492564,0.0193,0.0102,0.1361,0.138
3.498801,-0.0002,-0.0114,0.0648,0.066
3.515593,0.0378,-0.0505,0.0592,0.087
3.518331,0.0257,-0.0407,0.0645,0.08
3.529439,-0.0189,-0.0111,0.0339,0.04
3.543773,0.0014,0.0195,0.0255,0.032
3.547853,-0.0066,0.033,0.0564,0.066
3.558425,-0.0461,0.071,0.0858,0.121
3.570741,-0.0915,0.0632,0.0865,0.141
3.578134,-0.066,0.0281,0.0753,0.104
3.587966,-0.0113,0.0255,0.0715,0.077
3.597933,0.0117,0.0304,0.1003,0.105
3.609113,0.0229,0.0076,0.1567,0.159
3.633027,0.0383,-0.0389,0.1936,0.201
3.63539,0.0323,-0.0586,0.1761,0.188
3.637863,0.0163,-0.0807,0.0691,0.108
3.648117,-0.0313,-0.0495,0.0092,0.059
3.658123,-0.0323,-0.0087,0.0087,0.035
3.668785,-0.0371,0.0029,0.0194,0.042
3.679587,-0.0592,0.006,-0.0019,0.06
3.688038,-0.0655,0.0354,0.0597,0.095
3.698121,-0.0567,-0.0032,0.0778,0.096
3.708482,-0.045,-0.0305,0.043,0.069
3.735458,0.0036,-0.0465,0.0416,0.062
3.737752,0.0187,-0.0646,0.1061,0.126
3.738952,0.0228,-0.0563,0.1213,0.136
3.748538,0.0098,-0.059,0.1017,0.118
3.758648,-0.0103,-0.0453,0.0688,0.083
3.767946,-0.0233,0.0161,0.0695,0.075
3.777948,-0.0522,0.0323,0.0304,0.069
3.787865,-0.1004,0.0087,-0.0542,0.114
3.807429,-0.0909,0.0327,-0.0777,0.124
3.81056,-0.0724,0.0423,-0.0074,0.084
3.839166,-0.095,0.022,0.0813,0.127
3.841398,-0.0672,0.0457,0.1736,0.192
3.842968,-0.0746,-0.0458,0.1208,0.149
3.857757,-0.0606,-0.0505,-0.0048,0.079
3.859588,-0.0048,-0.0556,-0.098,0.113
3.874596,0.0305,-0.1237,-0.0961,0.16
3.87944,0.0518,-0.1429,0.004,0.152
3.888823,0.0406,-0.1281,0.1926,0.235
3.899614,-0.0462,-0.0104,0.2272,0.232
3.90803,-0.0682,-0.026,0.2049,0.217
3.922538,-0.0915,-0.0444,0.0781,0.128
3.927942,-0.057,-0.0992,-0.0377,0.12
3.949068,-0.053,-0.0929,-0.1112,0.154
3.950963,-0.034,0.0098,-0.1002,0.106
3.958127,-0.0754,0.0909,-0.0087,0.118
3.967885,-0.1382,0.1775,0.0829,0.24
3.977826,-0.1494,0.14,0.1612,0.261
3.989316,-0.0618,0.0104,0.1409,0.154
4.004745,0.0397,-0.0608,0.0902,0.116
4.008219,0.1217,-0.1072,0.0392,0.167
4.03005,0.1292,-0.1203,0.011,0.177
4.032814,0.0903,-0.1072,0.0045,0.14
4.038068,0.0577,-0.1027,0.0247,0.12
4.048125,0.0074,-0.0784,0.0571,0.097
4.057918,-0.0441,-0.0762,0.0057,0.088
4.068774,-0.0377,-0.0319,-0.0402,0.064
4.079312,-0.0528,0.0186,0.0026,0.056
4.088086,-0.0874,0.0333,0.0651,0.114
4.103463,-0.0637,0.0508,0.183,0.2
4.11009,-0.0492,0.0542,0.244,0.255
4.128272,0.0105,0.0009,0.1617,0.162
4.13053,0.0897,-0.0761,0.0777,0.141
4.13786,0.1153,-0.1332,0.0358,0.18
4.147862,0.066,-0.1234,0.0374,0.145
4.157846,0.0159,-0.083,0.0896,0.123
4.168367,-0.0698,-0.0428,0.0916,0.123
4.179835,-0.1385,0.0429,0.0866,0.169
4.187936,-0.141,0.09,0.0468,0.174
4.198047,-0.1041,0.0668,-0.005,0.124
4.207991,-0.0038,-0.0341,0.0197,0.04
4.217978,0.0732,-0.1197,0.0322,0.144
4.239527,0.1135,-0.1441,0.078,0.199
4.241318,0.1498,-0.1527,0.132,0.251
4.253564,0.0984,-0.1104,0.1512,0.211
4.258025,0.0208,-0.058,0.1093,0.125
4.270075,-0.0016,-0.0226,0.0566,0.061
4.289344,-0.0286,-0.0181,-0.032,0.047
4.291285,-0.0677,-0.0456,-0.0954,0.126
4.298172,-0.067,-0.0481,-0.0964,0.127
4.308206,-0.048,-0.0036,-0.0456,0.066
4.318533,-0.0884,0.0327,0.0463,0.105
4.342013,-0.128,0.0404,0.1232,0.182
4.344634,-0.0771,0.0346,0.1499,0.172
4.348386,-0.0352,0.0444,0.121,0.134
4.358116,-0.0106,0.0047,0.062,0.063
4.368154,0.0318,-0.0192,0.0842,0.092
4.378431,0.027,-0.0438,0.1326,0.142
4.387941,-0.0263,-0.0141,0.1303,0.134
4.398435,-0.0258,0.0058,0.0801,0.084
4.408315,-0.0214,-0.0131,0.024,0.035
4.418302,-0.0177,0.0168,0.0617,0.066
4.439621,-0.0805,0.0092,0.0409,0.091
4.44299,-0.0974,0.0229,-0.0121,0.101
4.451421,0.0428,0.0587,0.0801,0.108
4.465135,-0.023,0.0278,0.2607,0.263
4.468127,-0.1241,-0.0164,0.3681,0.389
4.480191,-0.0459,-0.1774,0.4183,0.457
4.488024,-0.0074,-0.1954,0.4238,0.467
4.497998,-0.1065,-0.0604,0.312,0.335
4.515424,-0.1531,-0.0007,0.0365,0.157
4.518532,-0.1362,0.0545,-0.1315,0.197
4.541006,-0.1095,0.0989,-0.2053,0.253
4.543496,-0.1316,0.0823,-0.2717,0.313
4.548472,0.0216,-0.0017,-0.2616,0.263
4.559812,0.1379,-0.0136,-0.107,0.175
4.568023,0.0536,-0.0041,0.0326,0.063
4.578531,-0.0721,-0.0298,0.1408,0.161
4.587798,-0.0026,-0.112,0.2568,0.28
4.597843,-0.0481,-0.2019,0.3804,0.433
4.615796,-0.0693,-0.2637,0.3627,0.454
4.617969,-0.0465,-0.2662,0.2054,0.339
4.639471,0.01,-0.2468,0.0058,0.247
4.641557,0.0517,-0.1583,-0.0819,0.186
4.648116,0.0196,0.012,-0.0722,0.076
4.658363,-0.1463,0.1745,-0.0659,0.237
4.667784,-0.2401,0.2644,-0.0117,0.357
4.67832,-0.1971,0.3072,0.2137,0.423
4.688227,-0.1658,0.2693,0.4042,0.513
4.697911,-0.1459,0.1464,0.4862,0.528
4.712744,-0.0459,-0.1073,0.2361,0.263
4.718313,0.1426,-0.3345,-0.1398,0.39
4.73457,0.2593,-0.417,-0.4912,0.695
4.738037,0.2353,-0.3164,-0.6466,0.757
4.753081,0.1764,-0.1314,-0.5262,0.57
4.75864,-0.147,0.0477,-0.3302,0.365
4.768419,-0.3238,0.1711,-0.0798,0.375
4.778676,-0.3587,0.2645,0.1697,0.477
4.788515,-0.4177,0.2094,0.3192,0.566
4.798052,-0.2732,0.0635,0.3192,0.425
4.813063,-0.0929,-0.0453,0.2558,0.276
4.818349,0.0391,-0.0829,0.1442,0.171
4.838221,0.2194,-0.0443,0.0078,0.224
4.84026,0.2489,-0.0053,-0.0591,0.256
4.847949,0.137,0.0076,-0.0983,0.169
4.858014,0.066,0.0203,-0.0129,0.07
4.867745,-0.0055,0.01,0.1083,0.109
4.877853,-0.1647,0.0076,0.2178,0.273
4.889854,-0.2943,0.0249,0.1507,0.332
4.897951,-0.2671,-0.0199,0.0911,0.283
4.908232,-0.1954,0.0622,0.1322,0.244
4.918015,-0.0535,0.0908,0.1257,0.164
4.929072,0.0658,0.0729,0.2048,0.227
4.957501,0.0821,0.0344,0.215,0.233
4.959561,0.1671,-0.0367,0.221,0.28
4.960468,0.277,-0.1043,0.2316,0.376
4.968283,0.3031,-0.1557,0.1942,0.392
4.978112,0.1741,-0.2731,0.0727,0.332
4.994646,0.1604,-0.407,-0.1537,0.464
4.998493,0.1805,-0.2521,-0.2206,0.381
5.008777,-0.0178,0.0478,-0.0708,0.087
5.018926,-0.2965,0.2169,0.0947,0.379
5.02855,-0.3878,0.2596,0.2397,0.525
5.050948,-0.3081,0.2891,0.3919,0.576
5.053494,-0.2135,0.2645,0.3764,0.507
5.058512,-0.0637,0.1608,0.1218,0.212
5.067817,0.1551,-0.0184,-0.1953,0.25
5.077808,0.3494,-0.1629,-0.4065,0.56
5.08839,0.3543,-0.1887,-0.3266,0.518
5.097904,0.1767,-0.2744,0.0245,0.327
5.110664,0.1087,-0.3105,0.308,0.451
5.135019,-0.0827,-0.0591,-0.0084,0.102
5.136735,-0.0839,-0.056,-0.0088,0.101
5.137979,-0.1661,0.1047,-0.1421,0.242
5.148352,-0.2445,0.0814,0.0193,0.258
5.158128,-0.1512,0.1021,0.193,0.266
5.176011,-0.1513,0.0933,0.187,0.258
5.187615,0.0753,-0.1361,0.1176,0.195
5.197545,0.1264,-0.1581,0.0791,0.217
5.208741,0.1059,-0.1148,-0.0814,0.176
5.219108,0.1507,0.0237,-0.1321,0.202
5.228312,0.044,0.1911,0.002,0.196
5.238588,-0.0349,0.1792,0.0321,0.185
5.247382,0.1158,0.1442,-0.1565,0.242
5.260527,0.1665,0.0541,-0.3598,0.4
5.268272,0.1036,-0.0697,-0.43,0.448
