time,ax,ay,az,atotal
0.0,0.086,-0.03,0.008,0.091
0.01,-0.111,0.283,-0.029,0.305
0.02,-0.039,0.022,-0.003,0.045
0.03,-0.003,-0.115,-0.046,0.124
0.04,0.029,-0.003,0.07,0.075
0.051,0.099,-0.036,-0.063,0.123
0.061,-0.106,0.133,0.08,0.188
0.071,-0.024,0.095,0.081,0.127
0.081,-0.12,0.102,-0.08,0.177
0.091,0.01,0.042,0.144,0.15
0.101,0.026,0.051,0.07,0.091
0.111,0.106,0.045,0.086,0.144
0.121,0.019,0.07,-0.021,0.075
0.131,0.075,0.145,0.075,0.179
0.142,0.048,0.106,0.109,0.16
0.152,-0.012,0.121,0.023,0.123
0.162,-0.07,0.122,0.169,0.22
0.172,0.032,0.154,0.031,0.161
0.182,-0.073,0.108,0.107,0.168
0.192,0.095,0.115,0.046,0.156
0.202,0.009,0.183,0.066,0.194
0.212,0.091,0.036,-0.093,0.135
0.222,-0.008,0.022,0.049,0.054
0.233,0.037,-0.004,-0.029,0.048
0.243,0.035,0.107,-0.038,0.119
0.253,0.02,-0.055,0.142,0.154
0.263,-0.002,0.132,0.004,0.132
0.273,0.048,0.087,-0.052,0.113
0.283,-0.03,0.188,-0.008,0.191
0.293,-0.046,0.045,-0.075,0.099
0.303,0.102,0.083,0.115,0.175
0.313,0.071,0.19,-0.035,0.206
0.324,0.033,0.212,0.05,0.22
0.334,0.129,0.048,0.107,0.175
0.344,0.014,0.118,-0.024,0.121
0.354,0.11,0.128,0.047,0.175
0.364,0.042,0.135,-0.063,0.155
0.374,-0.029,0.085,0.179,0.201
0.384,0.144,0.21,0.073,0.264
0.394,0.093,-0.043,-0.007,0.103
0.404,0.027,0.075,-0.049,0.094
0.415,0.079,0.145,-0.004,0.165
0.425,0.012,0.147,-0.021,0.149
0.435,0.086,0.219,0.139,0.273
0.445,-0.106,0.208,-0.085,0.248
0.455,-0.023,0.09,0.009,0.093
0.465,0.097,0.217,-0.002,0.238
0.475,0.024,0.057,-0.01,0.062
0.485,0.052,0.189,-0.011,0.196
0.496,-0.041,0.26,-0.012,0.263
0.506,0.152,0.213,0.056,0.267
0.516,0.113,0.124,0.036,0.172
0.526,0.03,0.09,0.022,0.097
0.536,0.018,-0.005,-0.221,0.221
0.546,0.105,0.142,0.012,0.177
0.556,0.162,0.028,-0.126,0.207
0.566,0.101,0.055,0.034,0.12
0.576,0.175,0.023,0.091,0.198
0.587,-0.011,0.082,-0.078,0.114
0.597,-0.004,0.117,-0.033,0.121
0.607,-0.026,0.141,-0.057,0.154
0.617,0.072,0.071,0.07,0.124
0.627,0.057,0.205,-0.011,0.213
0.637,0.038,0.103,0.103,0.15
0.647,0.096,0.057,0.01,0.112
0.657,0.121,0.138,-0.003,0.184
0.667,-0.044,0.277,-0.016,0.281
0.678,0.012,0.147,0.035,0.151
0.688,0.097,0.091,-0.145,0.197
0.698,0.02,-0.002,-0.018,0.027
0.708,0.001,0.102,-0.03,0.107
0.718,0.11,0.139,0.025,0.179
0.728,-0.028,0.089,-0.04,0.101
0.738,0.031,-0.014,-0.101,0.106
0.748,0.069,0.051,-0.028,0.091
0.758,0.015,0.235,-0.106,0.259
0.769,0.097,0.234,-0.166,0.302
0.779,0.016,0.048,0.019,0.054
0.789,0.134,0.172,0.008,0.218
0.799,0.042,0.024,-0.001,0.049
0.809,0.09,0.23,0.057,0.253
0.819,0.095,0.137,-0.082,0.186
0.829,0.012,0.193,-0.136,0.237
0.839,-0.073,-0.021,-0.042,0.087
0.849,0.072,0.17,-0.062,0.195
0.86,0.054,0.115,-0.098,0.16
0.87,0.083,0.183,-0.045,0.206
0.88,0.036,0.187,-0.084,0.208
0.89,0.024,0.119,-0.17,0.209
0.9,0.17,0.065,-0.073,0.196
0.91,-0.039,0.175,-0.123,0.217
0.92,0.093,0.107,-0.028,0.145
0.93,0.015,0.041,-0.091,0.101
0.94,0.029,0.037,0.032,0.056
0.951,0.03,-0.009,0.066,0.073
0.961,0.0,0.068,0.0,0.068
0.971,0.083,0.196,-0.157,0.264
0.981,0.132,0.121,0.056,0.187
0.991,0.076,0.064,0.06,0.116
1.001,0.054,0.17,-0.049,0.185
1.011,-0.012,0.038,0.041,0.057
1.021,0.078,0.111,-0.091,0.163
1.031,0.176,0.088,-0.184,0.269
1.042,0.023,0.164,-0.107,0.197
1.052,0.023,-0.026,0.066,0.075
1.062,0.012,0.031,-0.16,0.163
1.072,0.016,-0.033,-0.056,0.067
1.082,-0.12,0.076,-0.054,0.152
1.092,0.068,0.193,-0.093,0.225
1.102,-0.007,0.054,-0.089,0.105
1.112,-0.053,0.053,-0.054,0.092
1.122,0.088,0.162,-0.099,0.209
1.133,-0.023,0.177,-0.16,0.239
1.143,0.021,0.083,-0.046,0.097
1.153,0.129,0.143,0.014,0.193
1.163,-0.044,0.001,-0.001,0.044
1.173,-0.052,0.196,-0.12,0.236
1.183,0.056,0.257,-0.151,0.303
1.193,0.108,0.125,-0.084,0.185
1.203,-0.056,-0.085,0.045,0.111
1.213,0.062,0.036,-0.02,0.075
1.224,0.072,0.128,-0.017,0.148
1.234,-0.087,0.044,-0.004,0.098
1.244,0.084,0.178,-0.038,0.2
1.254,0.088,0.122,-0.059,0.161
1.264,0.016,0.017,-0.022,0.032
1.274,0.109,0.074,-0.107,0.17
1.284,0.101,-0.001,-0.168,0.196
1.294,0.038,0.054,-0.019,0.069
1.304,0.004,0.023,0.017,0.028
1.315,-0.028,0.159,-0.149,0.22
1.325,0.028,0.233,-0.014,0.235
1.335,0.063,-0.052,0.046,0.094
1.345,0.009,-0.093,-0.072,0.118
1.355,-0.104,0.039,-0.13,0.171
1.365,0.103,-0.064,-0.064,0.137
1.375,0.038,0.059,-0.112,0.132
1.385,0.003,0.114,-0.117,0.163
1.396,0.076,0.172,-0.044,0.193
1.406,0.115,0.067,-0.187,0.229
1.416,-0.145,0.033,-0.176,0.231
1.426,0.048,-0.111,-0.074,0.142
1.436,-0.065,0.047,-0.077,0.111
1.446,0.05,0.049,-0.052,0.087
1.456,0.027,0.093,0.055,0.111
1.466,0.057,-0.017,-0.069,0.091
1.476,-0.012,0.003,-0.035,0.037
1.487,-0.096,-0.082,-0.145,0.192
1.497,-0.011,-0.149,-0.024,0.151
1.507,0.039,-0.056,-0.114,0.133
1.517,0.075,-0.095,-0.073,0.141
1.527,-0.057,0.056,-0.086,0.117
1.537,0.074,-0.014,-0.006,0.075
1.547,-0.028,-0.018,-0.17,0.173
1.557,0.032,-0.055,-0.238,0.247
1.567,-0.021,-0.237,-0.094,0.256
1.578,0.019,0.14,-0.046,0.149
1.588,0.061,-0.062,-0.068,0.111
1.598,-0.067,-0.017,0.007,0.07
1.608,-0.035,-0.103,-0.049,0.119
1.618,0.016,0.09,-0.119,0.15
1.628,0.148,0.022,-0.242,0.285
1.638,-0.049,-0.058,-0.096,0.123
1.648,0.124,-0.025,-0.008,0.127
1.658,0.121,0.139,-0.107,0.213
1.669,-0.006,-0.003,-0.078,0.078
1.679,-0.019,-0.014,-0.05,0.056
1.689,-0.044,-0.077,-0.151,0.175
1.699,-0.007,-0.155,-0.036,0.159
1.709,-0.088,-0.018,0.035,0.097
1.719,-0.01,0.019,-0.092,0.095
1.729,0.084,0.079,-0.159,0.196
1.739,-0.043,-0.191,-0.085,0.213
1.749,-0.022,-0.103,-0.236,0.258
1.76,-0.111,-0.061,-0.056,0.138
1.77,0.013,-0.017,-0.048,0.053
1.78,0.005,-0.03,0.038,0.048
1.79,-0.008,-0.03,-0.093,0.098
1.8,-0.025,0.01,-0.051,0.058
1.81,-0.031,-0.096,-0.14,0.172
1.82,0.016,0.049,-0.104,0.116
1.83,-0.017,0.007,-0.186,0.187
1.84,0.003,-0.055,-0.092,0.108
1.851,-0.004,0.097,-0.1,0.139
1.861,0.05,0.091,-0.058,0.119
1.871,0.022,0.04,-0.122,0.13
1.881,-0.008,-0.278,-0.072,0.288
1.891,0.071,0.088,-0.101,0.151
1.901,0.004,0.023,-0.101,0.103
1.911,0.056,0.118,-0.072,0.149
1.921,0.013,0.055,-0.074,0.093
1.931,-0.134,0.08,-0.023,0.158
1.942,0.054,0.023,-0.085,0.103
1.952,-0.017,0.059,-0.101,0.118
1.962,-0.03,0.108,-0.089,0.143
1.972,-0.01,-0.036,-0.126,0.131
1.982,-0.049,-0.18,-0.1,0.212
1.992,-0.015,-0.081,0.067,0.106
2.002,-0.065,-0.027,-0.138,0.155
2.012,0.046,-0.054,-0.094,0.117
2.022,-0.038,-0.161,-0.101,0.194
2.033,-0.055,-0.193,-0.091,0.22
2.043,-0.088,-0.124,-0.096,0.18
2.053,-0.017,-0.001,-0.053,0.056
2.063,-0.023,0.059,-0.192,0.202
2.073,-0.011,0.004,0.001,0.012
2.083,-0.097,0.014,-0.027,0.102
2.093,-0.132,-0.079,-0.158,0.22
2.103,0.001,-0.213,-0.229,0.313
2.113,0.052,-0.112,-0.138,0.185
2.124,-0.1,-0.097,-0.086,0.164
2.134,0.057,-0.118,0.112,0.172
2.144,-0.022,-0.075,-0.03,0.084
2.154,-0.04,-0.046,-0.194,0.203
2.164,-0.064,-0.014,-0.115,0.133
2.174,-0.124,-0.106,-0.07,0.178
2.184,0.018,-0.237,-0.048,0.243
2.194,-0.088,-0.125,-0.157,0.22
2.204,-0.089,-0.084,-0.074,0.143
2.215,0.017,0.009,-0.114,0.116
2.225,-0.156,-0.136,-0.141,0.25
2.235,-0.135,-0.051,-0.045,0.151
2.245,-0.045,-0.07,-0.008,0.084
2.255,-0.027,-0.091,-0.003,0.095
2.265,-0.016,-0.021,-0.021,0.033
2.275,-0.064,-0.149,-0.095,0.188
2.285,0.106,-0.144,-0.01,0.179
2.296,-0.06,-0.1,-0.037,0.122
2.306,-0.061,-0.151,-0.049,0.17
2.316,-0.095,-0.06,-0.1,0.151
2.326,-0.04,-0.159,-0.092,0.188
2.336,-0.011,-0.085,-0.051,0.099
2.346,0.024,-0.112,0.115,0.162
2.356,-0.138,-0.087,-0.034,0.166
2.366,-0.063,-0.142,-0.097,0.183
2.376,-0.022,-0.134,-0.111,0.175
2.387,-0.014,-0.1,-0.087,0.133
2.397,-0.049,-0.092,0.101,0.145
2.407,-0.017,-0.109,-0.079,0.136
2.417,-0.098,0.027,0.013,0.102
2.427,0.044,-0.19,-0.076,0.209
2.437,0.01,-0.116,-0.03,0.121
2.447,-0.13,-0.238,0.008,0.271
2.457,-0.114,-0.083,-0.087,0.166
2.467,-0.113,-0.202,-0.091,0.249
2.478,-0.009,-0.136,0.071,0.154
2.488,-0.127,-0.144,0.025,0.194
2.498,-0.07,-0.093,0.012,0.117
2.508,-0.023,-0.16,0.013,0.162
2.518,-0.054,-0.164,-0.01,0.173
2.528,-0.034,-0.002,0.1,0.106
2.538,-0.114,-0.094,-0.037,0.152
2.548,-0.014,-0.162,0.001,0.163
2.558,-0.086,-0.138,-0.14,0.214
2.569,-0.069,0.014,-0.095,0.118
2.579,-0.035,-0.137,-0.12,0.186
2.589,-0.043,-0.174,0.054,0.187
2.599,-0.048,-0.174,-0.213,0.279
2.609,-0.094,-0.163,-0.062,0.198
2.619,-0.067,-0.167,-0.242,0.302
2.629,-0.048,-0.222,-0.09,0.244
2.639,-0.131,-0.21,-0.065,0.256
2.649,-0.076,-0.186,0.067,0.212
2.66,-0.024,-0.073,-0.001,0.077
2.67,-0.124,-0.15,-0.086,0.213
2.68,0.022,-0.137,0.048,0.146
2.69,0.029,-0.018,-0.025,0.043
2.7,-0.121,-0.016,-0.022,0.124
2.71,0.035,-0.142,-0.108,0.182
2.72,-0.054,-0.17,-0.092,0.201
2.73,-0.02,-0.189,-0.08,0.206
2.74,-0.075,-0.064,-0.018,0.1
2.751,0.011,-0.136,-0.015,0.137
2.761,-0.02,-0.15,0.089,0.175
2.771,-0.092,-0.184,0.009,0.206
2.781,-0.113,-0.18,-0.207,0.297
2.791,-0.13,-0.093,0.002,0.16
2.801,-0.031,-0.223,-0.117,0.254
2.811,-0.007,-0.038,-0.082,0.091
2.821,-0.002,-0.16,-0.07,0.175
2.831,-0.048,-0.129,-0.059,0.149
2.842,-0.109,-0.223,-0.108,0.271
2.852,-0.08,-0.117,0.004,0.142
2.862,0.03,-0.141,-0.108,0.181
2.872,-0.067,-0.119,0.017,0.137
2.882,-0.029,0.004,0.149,0.152
2.892,-0.101,-0.099,-0.099,0.173
2.902,-0.016,-0.176,-0.025,0.179
2.912,-0.063,-0.169,-0.181,0.256
2.922,0.028,-0.064,-0.024,0.074
2.933,0.012,-0.007,0.043,0.045
2.943,-0.063,-0.088,0.049,0.119
2.953,-0.04,-0.054,0.005,0.068
2.963,-0.065,-0.06,0.063,0.109
2.973,-0.117,0.006,0.18,0.215
2.983,-0.082,-0.263,0.123,0.301
2.993,-0.018,-0.053,-0.033,0.064
3.003,-0.01,-0.026,-0.097,0.101
3.013,-0.019,-0.211,-0.022,0.213
3.024,-0.046,-0.174,-0.059,0.189
3.034,0.029,-0.17,0.04,0.177
3.044,-0.022,-0.159,-0.074,0.177
3.054,0.017,-0.139,0.005,0.14
3.064,-0.131,-0.08,0.07,0.168
3.074,-0.259,-0.029,0.005,0.26
3.084,-0.006,-0.01,-0.053,0.054
3.094,-0.107,-0.163,0.096,0.217
3.104,-0.034,-0.162,-0.117,0.202
3.115,-0.038,0.012,-0.007,0.041
3.125,0.076,-0.04,0.014,0.087
3.135,0.006,-0.084,0.019,0.087
3.145,-0.007,-0.052,0.032,0.061
3.155,0.034,-0.091,0.063,0.115
3.165,0.007,-0.045,0.018,0.049
3.175,-0.042,-0.113,-0.004,0.12
3.185,0.051,-0.063,-0.006,0.081
3.196,-0.079,-0.204,-0.019,0.22
3.206,0.007,-0.137,0.08,0.158
3.216,-0.104,-0.134,-0.019,0.171
3.226,0.002,-0.109,0.086,0.139
3.236,0.002,-0.151,0.029,0.154
3.246,0.092,-0.119,-0.008,0.15
3.256,-0.101,-0.196,0.073,0.232
3.266,-0.042,-0.029,-0.02,0.055
3.276,0.044,-0.078,0.076,0.118
3.287,0.016,-0.206,0.047,0.212
3.297,0.007,-0.135,-0.008,0.135
3.307,-0.06,-0.04,0.071,0.101
3.317,-0.037,-0.109,0.073,0.136
3.327,0.074,-0.119,0.117,0.183
3.337,-0.003,-0.068,0.105,0.125
3.347,0.024,-0.033,0.072,0.083
3.357,-0.005,-0.173,-0.04,0.178
3.367,-0.068,-0.013,0.211,0.222
3.378,0.06,-0.119,-0.058,0.145
3.388,0.035,-0.055,0.108,0.126
3.398,0.144,-0.055,0.073,0.171
3.408,-0.054,-0.092,-0.039,0.114
3.418,0.057,-0.13,0.035,0.147
3.428,-0.07,-0.069,0.039,0.106
3.438,0.019,0.085,0.137,0.163
3.448,0.069,-0.152,-0.003,0.167
3.458,-0.113,0.094,0.029,0.15
3.469,0.0,-0.06,-0.115,0.13
3.479,-0.02,-0.035,0.17,0.175
3.489,-0.028,-0.123,-0.025,0.128
3.499,0.038,-0.096,0.073,0.127
3.509,0.083,-0.072,0.044,0.119
3.519,0.009,-0.114,0.045,0.123
3.529,0.03,-0.045,0.11,0.122
3.539,0.026,-0.059,0.171,0.182
3.549,0.02,0.123,0.072,0.144
3.56,-0.045,-0.116,0.101,0.16
3.57,0.088,-0.013,0.079,0.119
3.58,0.04,0.001,0.128,0.134
3.59,0.047,-0.103,0.025,0.116
3.6,-0.024,0.04,0.133,0.141
3.61,-0.003,-0.045,0.136,0.144
3.62,0.015,-0.211,0.135,0.251
3.63,-0.065,0.043,0.014,0.08
3.64,-0.074,-0.097,0.049,0.132
3.651,-0.008,-0.09,0.078,0.119
3.661,0.06,0.051,-0.034,0.086
3.671,-0.009,-0.03,0.174,0.177
3.681,-0.031,0.073,0.062,0.101
3.691,-0.018,0.099,0.084,0.131
3.701,0.005,-0.048,0.024,0.054
3.711,0.011,0.069,-0.028,0.075
3.721,0.163,-0.053,0.023,0.173
3.731,0.097,0.188,0.082,0.227
3.742,0.096,-0.044,0.114,0.156
3.752,0.106,0.095,0.079,0.163
3.762,-0.024,0.083,0.092,0.126
3.772,-0.037,0.042,0.045,0.072
3.782,-0.029,-0.035,0.104,0.113
3.792,0.118,0.009,0.173,0.21
3.802,0.006,-0.15,0.119,0.192
3.812,-0.036,0.042,0.127,0.139
3.822,0.014,0.054,0.092,0.107
3.833,0.026,0.039,-0.034,0.058
3.843,0.057,-0.208,-0.001,0.216
3.853,0.057,-0.069,0.104,0.137
3.863,-0.008,-0.026,0.072,0.077
3.873,0.084,0.059,0.104,0.146
3.883,0.005,0.06,0.191,0.2
3.893,0.034,0.026,0.125,0.132
3.903,0.085,0.092,0.162,0.205
3.913,0.006,-0.039,0.081,0.091
3.924,0.011,0.093,0.019,0.096
3.934,0.081,0.084,0.071,0.137
3.944,-0.006,0.078,0.019,0.081
3.954,0.023,0.035,0.185,0.19
3.964,0.08,0.198,0.132,0.251
3.974,0.17,0.093,0.113,0.224
3.984,0.083,-0.023,0.163,0.185
3.994,0.076,0.076,-0.064,0.125
4.004,0.08,0.118,0.119,0.186
4.015,-0.016,0.013,-0.014,0.025
4.025,0.055,0.149,0.077,0.177
4.035,0.047,0.094,0.056,0.119
4.045,0.068,-0.123,0.125,0.188
4.055,0.056,0.09,0.095,0.142
4.065,0.072,0.036,0.173,0.191
4.075,0.031,0.113,0.037,0.122
4.085,0.053,0.147,0.129,0.202
4.096,-0.024,0.088,0.091,0.129
4.106,0.03,0.207,-0.035,0.212
4.116,0.133,0.061,0.015,0.147
4.126,0.069,0.127,0.069,0.16
4.136,0.049,0.143,0.158,0.218
4.146,0.164,0.072,0.112,0.211
4.156,-0.032,0.144,-0.002,0.147
4.166,-0.017,0.035,0.07,0.08
4.176,0.153,0.05,0.221,0.273
4.187,0.053,-0.02,0.088,0.104
4.197,0.035,0.106,0.057,0.126
4.207,-0.022,0.114,0.114,0.163
4.217,0.077,0.184,0.133,0.24
4.227,0.082,0.154,0.048,0.181
4.237,-0.016,0.069,0.115,0.135
4.247,0.041,-0.001,0.057,0.07
4.257,0.029,0.129,0.13,0.186
4.267,0.064,0.184,0.092,0.216
4.278,-0.018,0.157,0.113,0.195
4.288,0.124,0.184,0.026,0.224
4.298,0.103,0.082,0.022,0.134
4.308,0.026,0.063,0.146,0.161
4.318,0.035,0.042,0.074,0.092
4.328,0.04,0.097,0.099,0.144
4.338,0.001,0.097,0.057,0.112
4.348,0.02,0.12,0.142,0.187
4.358,0.031,0.095,0.036,0.106
4.369,0.143,0.095,0.069,0.185
4.379,0.103,0.045,0.133,0.174
4.389,0.102,0.183,0.16,0.263
4.399,0.067,0.114,0.041,0.139
4.409,-0.022,0.095,0.215,0.236
4.419,0.042,0.05,0.099,0.119
4.429,0.102,0.004,0.004,0.102
4.439,-0.032,0.216,0.102,0.241
4.449,0.081,0.156,0.049,0.183
4.46,0.182,-0.017,0.106,0.211
4.47,0.106,0.174,0.073,0.217
4.48,0.126,0.188,0.08,0.24
4.49,0.054,0.125,0.011,0.136
4.5,0.099,0.243,0.144,0.299
4.51,-0.003,0.133,-0.007,0.133
4.52,0.087,0.003,-0.004,0.087
4.53,0.078,0.146,0.099,0.193
4.54,0.055,0.137,0.185,0.237
4.551,0.116,0.069,0.048,0.144
4.561,0.005,0.164,0.121,0.204
4.571,0.025,-0.015,0.147,0.15
4.581,0.041,0.198,0.128,0.239
4.591,-0.027,0.049,0.049,0.074
4.601,0.048,0.04,-0.006,0.063
4.611,-0.07,0.11,-0.085,0.155
4.621,0.096,0.154,0.051,0.188
4.631,0.035,0.133,0.151,0.204
4.642,0.0,0.06,-0.01,0.061
4.652,-0.02,0.079,0.117,0.142
4.662,0.016,0.029,0.001,0.033
4.672,0.07,0.102,0.074,0.144
4.682,0.061,0.206,0.116,0.244
4.692,-0.015,0.12,0.019,0.122
4.702,-0.024,0.189,0.077,0.205
4.712,0.065,0.236,0.035,0.248
4.722,-0.018,0.073,0.113,0.136
4.733,0.028,0.105,0.079,0.134
4.743,0.031,0.293,0.066,0.302
4.753,0.041,0.235,0.171,0.293
4.763,0.073,-0.015,0.107,0.131
4.773,-0.055,0.15,0.012,0.16
4.783,-0.095,0.119,0.054,0.161
4.793,-0.015,0.184,0.054,0.193
4.803,0.126,0.058,0.064,0.153
4.813,0.139,0.05,0.234,0.277
4.824,0.126,0.063,0.083,0.164
4.834,0.004,0.071,-0.086,0.112
4.844,-0.092,0.181,0.018,0.204
4.854,-0.127,0.021,-0.08,0.152
4.864,-0.024,0.065,0.031,0.076
4.874,-0.0,-0.029,-0.086,0.09
4.884,0.089,0.195,-0.008,0.214
4.894,0.062,0.215,-0.055,0.23
4.904,0.023,0.087,0.078,0.119
4.915,-0.045,0.088,0.05,0.111
4.925,-0.051,0.148,0.071,0.171
4.935,0.021,0.229,0.041,0.233
4.945,0.047,0.143,-0.05,0.158
4.955,0.028,0.053,0.083,0.102
4.965,-0.059,-0.021,0.181,0.191
4.975,0.041,0.018,0.074,0.087
4.985,0.027,0.112,0.015,0.117
4.996,-0.064,0.053,-0.056,0.1
5.006,-0.048,0.12,-0.021,0.131
5.016,0.04,0.06,0.074,0.103
5.026,-0.017,0.018,0.116,0.119
5.036,0.092,0.008,0.058,0.109
5.046,0.026,0.226,0.095,0.246
5.056,-0.034,0.171,0.088,0.195
5.066,-0.007,0.237,0.073,0.248
5.076,-0.003,0.141,-0.01,0.141
5.087,-0.052,0.062,0.048,0.094
5.097,-0.064,0.201,-0.025,0.213
5.107,0.032,0.092,0.035,0.103
5.117,0.04,0.111,0.056,0.13
5.127,0.024,0.088,0.149,0.175
5.137,0.078,-0.145,-0.061,0.176
5.147,-0.046,0.218,0.064,0.232
5.157,0.086,0.127,0.133,0.203
5.167,-0.07,0.113,0.081,0.156
5.178,-0.077,0.08,0.086,0.141
5.188,-0.123,0.097,0.067,0.171
5.198,-0.045,0.035,0.116,0.129
5.208,-0.049,0.131,-0.052,0.149
5.218,0.012,-0.025,-0.074,0.079
5.228,-0.006,0.093,0.022,0.096
5.238,-0.093,0.122,-0.13,0.201
5.248,-0.046,0.06,0.107,0.131
5.258,-0.046,0.104,0.105,0.154
5.269,-0.131,-0.007,-0.012,0.132
5.279,-0.084,-0.006,-0.008,0.085
5.289,-0.072,0.088,0.011,0.115
5.299,0.059,0.122,0.019,0.137
5.309,-0.016,-0.084,0.023,0.088
5.319,0.011,0.106,0.053,0.119
5.329,-0.119,0.02,0.0,0.121
5.339,0.042,0.046,0.078,0.099
5.349,0.047,-0.047,0.042,0.079
5.36,-0.151,-0.01,-0.033,0.155
5.37,-0.074,0.134,0.102,0.184
5.38,-0.003,0.057,-0.088,0.105
5.39,0.005,0.022,0.0,0.023
5.4,-0.075,0.042,0.073,0.113
5.41,-0.053,0.089,-0.046,0.113
5.42,-0.071,0.083,0.025,0.112
5.43,-0.03,0.04,0.04,0.064
5.44,0.035,0.132,-0.059,0.149
5.451,-0.084,0.12,-0.005,0.147
5.461,0.022,0.074,-0.012,0.078
5.471,-0.086,0.043,-0.04,0.104
5.481,-0.09,0.09,0.158,0.203
5.491,0.009,0.061,-0.057,0.084
5.501,0.015,0.118,0.066,0.136
5.511,0.01,0.104,-0.033,0.109
5.521,-0.121,-0.052,-0.083,0.155
5.531,-0.07,-0.059,-0.001,0.091
5.542,0.007,-0.03,0.037,0.048
5.552,-0.041,0.102,0.055,0.123
5.562,-0.108,-0.104,0.099,0.179
5.572,-0.017,0.052,0.194,0.202
5.582,-0.087,0.048,0.005,0.1
5.592,0.063,0.11,-0.06,0.14
5.602,0.047,0.029,0.017,0.058
5.612,-0.009,-0.094,-0.034,0.101
5.622,0.036,-0.066,0.048,0.089
5.633,-0.043,-0.085,-0.109,0.145
5.643,-0.001,-0.036,0.147,0.151
5.653,0.042,-0.009,0.04,0.059
5.663,-0.033,-0.09,-0.139,0.168
5.673,-0.063,0.119,-0.071,0.153
5.683,-0.15,-0.106,0.034,0.187
5.693,-0.053,0.106,0.059,0.132
5.703,0.001,0.091,-0.114,0.145
5.713,0.008,0.066,0.024,0.071
5.724,-0.019,-0.063,-0.163,0.176
5.734,-0.082,0.018,-0.034,0.09
5.744,-0.168,-0.114,0.049,0.209
5.754,-0.079,0.059,-0.068,0.12
5.764,-0.068,-0.021,-0.136,0.153
5.774,-0.068,-0.05,-0.021,0.087
5.784,-0.013,-0.117,-0.075,0.139
5.794,0.069,-0.219,0.011,0.23
5.804,-0.043,-0.106,-0.096,0.149
5.815,-0.063,0.064,-0.089,0.127
5.825,-0.066,-0.059,-0.177,0.198
5.835,-0.043,-0.042,-0.025,0.065
5.845,-0.1,0.022,-0.049,0.113
5.855,-0.043,0.112,-0.122,0.171
5.865,-0.023,0.072,-0.026,0.08
5.875,-0.037,-0.114,0.032,0.124
5.885,-0.022,-0.193,-0.056,0.202
5.896,-0.024,0.149,-0.023,0.153
5.906,-0.156,0.14,-0.024,0.211
5.916,-0.011,-0.028,-0.128,0.132
5.926,-0.09,-0.147,0.099,0.198
5.936,-0.115,0.03,-0.078,0.142
5.946,-0.115,-0.057,-0.0,0.129
5.956,-0.023,-0.059,0.007,0.064
5.966,-0.062,0.02,-0.058,0.087
5.976,-0.149,-0.027,-0.006,0.152
5.987,-0.019,-0.15,-0.032,0.155
5.997,-0.134,-0.083,-0.15,0.217
6.007,-0.039,-0.006,-0.074,0.084
6.017,-0.033,-0.019,-0.095,0.102
6.027,0.006,-0.041,-0.085,0.095
6.037,0.061,0.011,-0.145,0.157
6.047,-0.128,-0.094,0.025,0.161
6.057,-0.049,-0.052,0.057,0.092
6.067,-0.062,-0.338,0.013,0.344
6.078,-0.019,-0.106,0.032,0.112
6.088,-0.031,-0.01,-0.081,0.088
6.098,-0.065,-0.104,-0.102,0.16
6.108,-0.07,-0.112,-0.113,0.174
6.118,-0.11,-0.159,-0.014,0.194
6.128,0.017,0.003,-0.044,0.047
6.138,-0.014,-0.035,-0.066,0.076
6.148,0.014,-0.014,0.029,0.035
6.158,-0.06,-0.22,-0.034,0.23
6.169,-0.08,-0.096,-0.121,0.174
6.179,-0.104,-0.107,-0.111,0.186
6.189,-0.018,-0.108,-0.016,0.111
6.199,-0.101,-0.136,0.009,0.17
6.209,0.073,-0.116,-0.026,0.14
6.219,-0.116,-0.022,0.067,0.136
6.229,-0.02,-0.244,0.048,0.25
6.239,0.058,0.05,-0.036,0.085
6.249,0.001,-0.055,-0.126,0.137
6.26,-0.024,-0.098,-0.16,0.189
6.27,-0.092,-0.023,-0.095,0.135
6.28,-0.116,-0.213,-0.016,0.243
6.29,0.014,-0.151,0.058,0.163
6.3,0.058,-0.109,-0.041,0.13
6.31,-0.057,0.009,0.011,0.059
6.32,-0.099,-0.105,-0.088,0.169
6.33,-0.177,-0.066,-0.028,0.191
6.34,-0.088,-0.15,-0.014,0.175
6.351,-0.035,-0.065,-0.211,0.223
6.361,0.069,0.029,-0.102,0.126
6.371,0.014,-0.026,-0.007,0.031
6.381,-0.007,-0.113,-0.054,0.126
6.391,-0.049,-0.054,-0.158,0.174
6.401,-0.059,-0.062,-0.244,0.259
6.411,0.061,-0.069,-0.1,0.136
6.421,-0.01,-0.021,-0.08,0.083
6.431,-0.148,-0.022,-0.137,0.203
6.442,-0.061,-0.122,-0.066,0.151
6.452,-0.071,-0.061,-0.041,0.102
6.462,-0.052,-0.144,-0.029,0.155
6.472,0.016,-0.187,-0.242,0.306
6.482,-0.023,-0.136,-0.169,0.218
6.492,-0.021,-0.121,-0.098,0.157
6.502,0.064,-0.248,-0.037,0.259
6.512,-0.056,-0.047,-0.043,0.085
6.522,0.098,-0.338,-0.045,0.355
6.533,-0.053,0.1,-0.105,0.155
6.543,-0.006,0.003,-0.101,0.102
6.553,-0.028,-0.138,-0.13,0.192
6.563,-0.002,-0.117,-0.025,0.12
6.573,0.018,-0.094,-0.143,0.172
6.583,0.018,-0.166,-0.02,0.168
6.593,-0.052,-0.103,-0.065,0.133
6.603,-0.073,-0.131,-0.083,0.171
6.613,0.145,-0.127,-0.125,0.23
6.624,-0.033,-0.105,-0.174,0.206
6.634,0.039,-0.225,-0.125,0.26
6.644,-0.099,-0.117,-0.103,0.184
6.654,-0.018,-0.107,-0.246,0.268
6.664,-0.008,-0.11,-0.094,0.144
6.674,0.029,-0.137,-0.015,0.141
6.684,-0.162,-0.029,-0.04,0.169
6.694,0.013,-0.148,-0.115,0.188
6.705,-0.065,-0.102,-0.077,0.143
6.715,0.024,-0.016,-0.119,0.122
6.725,-0.057,-0.126,-0.07,0.155
6.735,-0.045,-0.102,0.028,0.115
6.745,-0.009,-0.127,-0.012,0.128
6.755,-0.055,-0.02,-0.043,0.073
6.765,-0.019,-0.14,-0.114,0.181
6.775,-0.061,-0.016,-0.027,0.069
6.785,-0.099,-0.127,-0.198,0.255
6.796,0.073,-0.187,-0.097,0.223
6.806,-0.065,-0.063,-0.038,0.098
6.816,0.003,-0.142,-0.027,0.144
6.826,0.06,-0.067,-0.032,0.096
6.836,-0.021,-0.335,-0.058,0.341
6.846,-0.033,-0.116,-0.092,0.152
6.856,0.031,-0.152,-0.041,0.161
6.866,0.085,-0.2,-0.145,0.261
6.876,-0.051,-0.159,-0.137,0.216
6.887,0.011,-0.16,-0.074,0.176
6.897,-0.083,-0.117,-0.066,0.158
6.907,-0.002,-0.222,-0.205,0.302
6.917,0.025,-0.087,-0.045,0.101
6.927,-0.028,-0.002,-0.023,0.036
6.937,-0.003,-0.088,-0.082,0.12
6.947,-0.059,-0.045,0.09,0.117
6.957,0.031,-0.021,-0.124,0.129
6.967,0.09,-0.009,-0.101,0.136
6.978,-0.038,0.042,-0.103,0.118
6.988,-0.009,-0.146,-0.08,0.167
6.998,0.059,-0.163,-0.098,0.199
7.008,0.103,-0.042,-0.173,0.205
7.018,-0.059,-0.047,-0.112,0.135
7.028,0.021,-0.041,-0.08,0.092
7.038,0.049,0.049,0.013,0.071
7.048,0.027,-0.1,0.082,0.132
7.058,-0.115,-0.066,0.021,0.134
7.069,0.064,-0.177,-0.126,0.227
7.079,0.126,0.073,-0.12,0.189
7.089,0.043,-0.123,-0.082,0.154
7.099,-0.025,-0.12,0.055,0.134
7.109,0.006,-0.122,-0.081,0.147
7.119,0.144,-0.144,-0.162,0.261
7.129,0.093,-0.15,-0.104,0.205
7.139,0.077,-0.132,-0.015,0.154
7.149,0.061,-0.198,-0.02,0.208
7.16,0.0,-0.151,-0.081,0.171
7.17,0.029,0.069,-0.019,0.077
7.18,0.036,-0.026,-0.225,0.23
7.19,0.075,-0.01,-0.058,0.095
7.2,0.133,0.012,-0.005,0.133
7.21,0.11,0.066,-0.123,0.177
7.22,-0.042,-0.221,-0.122,0.256
7.23,0.057,-0.177,-0.194,0.268
7.24,0.088,-0.141,0.049,0.173
7.251,0.082,-0.113,-0.112,0.179
7.261,0.007,-0.098,-0.044,0.108
7.271,0.22,-0.108,-0.018,0.246
7.281,-0.031,-0.053,0.046,0.077
7.291,-0.019,-0.066,-0.07,0.098
7.301,0.061,-0.125,-0.096,0.169
7.311,0.174,-0.24,-0.046,0.3
7.321,-0.003,-0.144,0.033,0.147
7.331,0.032,-0.107,-0.068,0.131
7.342,0.112,-0.081,-0.123,0.185
7.352,0.047,-0.15,-0.163,0.226
7.362,0.028,-0.097,-0.14,0.172
7.372,0.082,-0.147,0.007,0.168
7.382,0.065,-0.064,-0.075,0.119
7.392,0.111,-0.139,-0.094,0.201
7.402,0.127,-0.119,-0.101,0.201
7.412,0.068,-0.154,-0.044,0.174
7.422,0.067,-0.06,-0.066,0.112
7.433,0.062,-0.115,-0.068,0.147
7.443,0.079,0.029,0.046,0.096
7.453,0.053,-0.01,0.061,0.081
7.463,0.05,-0.046,-0.159,0.173
7.473,0.122,-0.102,-0.023,0.161
7.483,0.141,-0.006,-0.099,0.172
7.493,-0.04,0.02,-0.061,0.076
7.503,0.051,-0.022,-0.021,0.059
7.513,0.009,0.097,-0.057,0.113
7.524,0.031,0.007,-0.025,0.041
7.534,0.074,0.045,0.007,0.087
7.544,0.09,-0.015,-0.019,0.093
7.554,0.043,0.03,-0.084,0.099
7.564,-0.065,-0.086,-0.082,0.135
7.574,-0.008,-0.057,-0.138,0.149
7.584,0.103,0.01,-0.096,0.141
7.594,-0.115,0.011,0.102,0.155
7.605,0.12,0.026,-0.089,0.152
7.615,0.08,0.075,-0.117,0.16
7.625,0.128,-0.125,-0.01,0.179
7.635,0.036,-0.087,-0.039,0.102
7.645,-0.076,0.011,-0.044,0.088
7.655,0.074,-0.063,0.069,0.119
7.665,0.124,0.267,0.01,0.295
7.675,0.103,0.04,-0.065,0.128
7.685,0.007,-0.006,-0.056,0.057
7.696,0.052,-0.039,-0.061,0.089
7.706,0.014,-0.034,0.037,0.052
7.716,-0.003,0.009,-0.045,0.046
7.726,0.103,0.017,-0.148,0.181
7.736,-0.027,-0.026,-0.025,0.045
7.746,-0.009,-0.01,-0.128,0.129
7.756,-0.022,0.122,0.133,0.182
7.766,-0.046,0.127,-0.086,0.16
7.776,0.052,0.038,-0.029,0.071
7.787,0.113,-0.088,0.001,0.143
7.797,0.031,0.065,-0.036,0.08
7.807,-0.048,0.148,-0.035,0.159
7.817,0.092,0.135,0.016,0.164
7.827,0.142,0.086,0.094,0.191
7.837,0.001,0.143,0.042,0.149
7.847,0.011,0.035,0.093,0.1
7.857,0.07,0.083,-0.083,0.137
7.867,0.136,-0.02,0.014,0.138
7.878,0.007,0.06,0.003,0.06
7.888,-0.043,0.145,0.018,0.152
7.898,0.074,-0.007,0.091,0.118
7.908,0.084,-0.027,-0.02,0.09
7.918,0.036,0.051,-0.032,0.07
7.928,0.001,0.027,0.035,0.044
7.938,0.094,0.099,-0.126,0.186
7.948,0.065,0.013,-0.017,0.068
7.958,-0.014,0.188,-0.009,0.189
7.969,0.035,-0.051,-0.063,0.088
7.979,-0.05,0.154,0.076,0.179
7.989,0.071,-0.006,-0.071,0.101
7.999,0.014,-0.086,-0.005,0.088
8.009,0.003,0.078,0.026,0.082
8.019,0.026,0.04,0.101,0.112
8.029,0.03,-0.026,0.007,0.04
8.039,0.08,-0.071,0.074,0.13
8.049,0.061,0.065,0.059,0.107
8.06,0.015,0.145,0.019,0.147
8.07,0.07,0.115,-0.065,0.15
8.08,0.047,0.075,-0.088,0.125
8.09,-0.003,0.11,0.021,0.112
8.1,0.014,0.071,-0.023,0.076
8.11,0.012,-0.04,0.08,0.09
8.12,0.05,-0.037,0.069,0.093
8.13,-0.003,0.061,0.005,0.062
8.14,-0.006,0.066,-0.062,0.091
8.151,0.135,0.149,0.055,0.208
8.161,0.072,0.143,-0.051,0.168
8.171,-0.031,0.132,-0.032,0.139
8.181,0.048,0.062,-0.046,0.091
8.191,0.02,-0.024,0.014,0.035
8.201,0.036,0.12,0.106,0.165
8.211,0.02,0.131,0.025,0.135
8.221,0.082,-0.101,-0.005,0.13
8.231,0.03,0.024,-0.079,0.089
8.242,0.005,0.037,0.067,0.077
8.252,0.07,0.103,-0.025,0.127
8.262,0.021,0.031,0.038,0.053
8.272,0.013,0.093,0.006,0.094
8.282,0.024,0.08,0.091,0.123
8.292,-0.002,0.085,0.022,0.088
8.302,0.003,0.042,0.03,0.052
8.312,-0.033,0.049,0.069,0.091
8.322,-0.044,0.015,0.183,0.189
8.333,-0.06,0.133,0.099,0.176
8.343,-0.084,0.149,0.031,0.174
8.353,-0.055,0.043,0.039,0.079
8.363,-0.013,0.227,0.003,0.227
8.373,0.002,0.081,-0.026,0.085
8.383,-0.021,0.229,0.002,0.23
8.393,-0.147,0.057,-0.012,0.158
8.403,0.088,-0.053,0.089,0.136
8.413,0.058,0.142,-0.031,0.156
8.424,0.018,0.13,0.138,0.19
8.434,0.105,0.114,0.098,0.183
8.444,-0.069,0.06,0.048,0.103
8.454,0.102,0.11,0.047,0.157
8.464,-0.07,0.072,0.009,0.101
8.474,0.001,0.089,0.068,0.112
8.484,-0.09,0.182,0.126,0.239
8.494,-0.014,0.13,0.001,0.13
8.505,0.007,0.164,-0.056,0.174
8.515,-0.026,0.097,0.101,0.143
8.525,0.025,0.089,0.075,0.119
8.535,-0.013,0.025,-0.025,0.037
8.545,-0.051,0.088,0.003,0.101
8.555,-0.054,-0.148,-0.005,0.158
8.565,0.027,0.071,0.005,0.076
8.575,-0.061,0.112,0.034,0.132
8.585,0.032,0.164,0.038,0.171
8.596,0.05,0.097,0.012,0.11
8.606,-0.125,0.147,0.005,0.193
8.616,0.043,-0.055,0.043,0.082
8.626,0.097,0.115,0.072,0.167
8.636,-0.012,-0.015,0.038,0.043
8.646,0.008,0.023,0.142,0.144
8.656,0.034,0.105,0.097,0.147
8.666,-0.046,0.222,-0.049,0.232
8.676,-0.019,0.15,0.1,0.181
8.687,-0.11,0.121,0.106,0.195
8.697,-0.023,0.118,0.034,0.125
8.707,-0.002,0.063,-0.04,0.074
8.717,-0.002,0.076,0.066,0.101
8.727,0.03,0.154,0.065,0.17
8.737,-0.081,0.009,-0.012,0.082
8.747,-0.067,0.167,-0.034,0.183
8.757,0.078,0.088,0.062,0.133
8.767,-0.046,0.185,0.052,0.197
8.778,-0.025,0.196,0.04,0.201
8.788,-0.042,-0.016,0.063,0.078
8.798,-0.088,0.071,-0.007,0.113
8.808,0.058,0.049,0.04,0.086
8.818,-0.071,-0.028,0.108,0.132
8.828,-0.108,0.034,0.047,0.122
8.838,-0.068,0.312,-0.045,0.322
8.848,-0.161,0.165,0.039,0.234
8.858,-0.081,0.269,-0.002,0.281
8.869,-0.1,0.181,0.092,0.227
8.879,-0.006,0.055,0.096,0.111
8.889,-0.084,0.083,-0.042,0.125
8.899,0.01,0.16,0.127,0.205
8.909,0.04,0.147,-0.003,0.153
8.919,0.002,0.066,0.184,0.195
8.929,-0.058,-0.01,0.072,0.093
8.939,-0.037,0.373,-0.012,0.375
8.949,-0.137,0.098,-0.004,0.169
8.96,-0.054,0.083,0.101,0.141
8.97,-0.098,0.117,0.049,0.16
8.98,-0.005,0.088,0.07,0.112
8.99,0.107,0.116,0.19,0.247
9.0,-0.018,0.208,0.028,0.211
9.01,-0.167,0.094,0.082,0.209
9.02,-0.07,0.01,0.177,0.191
9.03,-0.041,0.09,0.097,0.138
9.04,-0.043,0.064,-0.034,0.085
9.051,-0.093,0.214,0.114,0.26
9.061,-0.034,0.193,-0.003,0.196
9.071,-0.124,0.107,0.177,0.241
9.081,-0.106,-0.005,0.021,0.108
9.091,-0.011,-0.002,0.287,0.287
9.101,-0.111,0.096,0.182,0.234
9.111,-0.017,0.121,0.024,0.124
9.121,-0.132,0.063,0.081,0.167
9.131,0.056,0.053,0.132,0.153
9.142,-0.096,0.043,0.135,0.171
9.152,-0.063,0.087,0.111,0.154
9.162,-0.03,-0.103,0.168,0.199
9.172,-0.084,-0.002,0.071,0.11
9.182,-0.041,0.035,0.054,0.077
9.192,-0.015,0.18,0.056,0.189
9.202,0.008,0.017,0.14,0.141
9.212,-0.002,0.095,0.106,0.142
9.222,-0.06,0.097,0.1,0.152
9.233,-0.058,0.182,0.136,0.234
9.243,0.091,0.177,-0.064,0.209
9.253,0.008,0.07,0.102,0.124
9.263,-0.104,0.035,0.095,0.146
9.273,-0.043,0.019,0.197,0.202
9.283,-0.069,0.051,-0.027,0.09
9.293,-0.057,0.034,0.189,0.2
9.303,-0.122,0.111,0.085,0.186
9.313,-0.073,0.099,0.113,0.167
9.324,0.061,0.111,0.196,0.234
9.334,-0.013,0.163,0.118,0.202
9.344,-0.197,0.21,0.107,0.307
9.354,0.026,0.069,0.096,0.121
9.364,0.019,0.145,0.045,0.153
9.374,-0.068,0.028,0.076,0.106
9.384,-0.003,0.149,0.028,0.151
9.394,-0.097,0.137,0.075,0.184
9.405,-0.073,0.131,-0.086,0.173
9.415,0.045,0.056,0.107,0.129
9.425,-0.061,-0.006,0.068,0.092
9.435,-0.156,-0.066,0.053,0.178
9.445,-0.047,0.04,0.092,0.111
9.455,-0.048,0.164,-0.024,0.173
9.465,0.03,0.015,0.211,0.213
9.475,-0.041,0.101,0.068,0.129
9.485,-0.067,0.104,0.065,0.139
9.496,0.022,0.012,0.007,0.026
9.506,-0.033,0.138,0.076,0.161
9.516,-0.085,-0.202,0.171,0.278
9.526,0.03,-0.069,0.146,0.164
9.536,-0.027,-0.046,0.133,0.143
9.546,-0.038,-0.04,0.111,0.124
9.556,-0.026,0.05,0.047,0.074
9.566,-0.101,0.045,-0.03,0.114
9.576,-0.067,0.051,0.057,0.102
9.587,-0.035,0.066,0.054,0.092
9.597,-0.046,-0.06,0.144,0.163
9.607,0.043,-0.083,0.092,0.131
9.617,-0.02,0.044,0.182,0.189
9.627,0.019,-0.04,0.153,0.159
9.637,-0.031,-0.117,0.036,0.127
9.647,0.033,0.084,-0.058,0.107
9.657,-0.006,0.116,0.164,0.201
9.667,-0.029,0.127,0.162,0.208
9.678,-0.029,0.016,-0.029,0.044
9.688,-0.085,0.049,0.171,0.197
9.698,0.003,0.107,0.092,0.141
9.708,-0.029,-0.056,0.076,0.099
9.718,-0.055,0.082,0.177,0.203
9.728,0.042,0.013,0.157,0.163
9.738,-0.099,0.062,0.108,0.159
9.748,-0.048,0.002,0.095,0.107
9.758,0.04,0.089,0.105,0.143
9.769,-0.002,0.002,0.033,0.033
9.779,-0.023,-0.137,0.056,0.15
9.789,-0.004,0.096,-0.004,0.096
9.799,-0.008,-0.098,0.035,0.104
9.809,-0.109,0.076,0.032,0.137
9.819,-0.038,-0.033,0.013,0.052
9.829,0.081,0.067,0.066,0.124
9.839,-0.054,0.061,0.033,0.089
9.849,-0.033,0.003,0.09,0.096
9.86,-0.046,0.008,-0.059,0.075
9.87,-0.017,-0.001,0.046,0.049
9.88,-0.046,-0.198,0.062,0.212
9.89,0.019,-0.029,0.03,0.046
9.9,0.002,-0.13,0.039,0.135
9.91,0.038,-0.028,-0.06,0.077
9.92,-0.071,-0.135,0.075,0.17
9.93,-0.027,-0.14,0.094,0.171
9.94,-0.019,0.081,0.083,0.117
9.951,0.023,0.036,0.12,0.127
9.961,-0.051,-0.051,0.061,0.095
9.971,0.052,-0.038,0.079,0.102
9.981,0.069,-0.074,0.056,0.116
9.991,-0.06,-0.01,0.092,0.111
10.001,-0.029,-0.112,-0.067,0.134
10.011,-0.031,0.02,-0.02,0.042
10.021,0.16,-0.081,0.152,0.235
10.031,-0.023,-0.096,-0.132,0.165
10.042,0.105,-0.063,0.03,0.125
10.052,-0.071,-0.113,0.121,0.18
10.062,-0.054,-0.041,0.031,0.074
10.072,-0.034,-0.112,0.009,0.118
10.082,-0.043,-0.033,0.045,0.071
10.092,-0.007,0.025,0.01,0.028
10.102,-0.033,-0.131,0.036,0.14
10.112,-0.039,-0.086,-0.015,0.095
10.122,0.081,-0.04,0.11,0.142
10.133,0.086,-0.113,0.131,0.193
10.143,0.07,-0.042,0.021,0.085
10.153,0.046,-0.036,-0.067,0.089
10.163,0.021,0.004,-0.008,0.023
10.173,-0.014,-0.132,0.015,0.134
10.183,-0.04,-0.16,0.062,0.177
10.193,0.04,-0.111,-0.045,0.126
10.203,-0.052,-0.165,-0.029,0.175
10.213,-0.04,-0.044,0.06,0.084
10.224,0.09,-0.183,0.089,0.222
10.234,0.135,0.095,-0.022,0.167
10.244,0.046,0.011,-0.072,0.086
10.254,0.089,-0.093,0.25,0.281
10.264,0.009,-0.026,0.074,0.079
10.274,-0.056,-0.227,-0.001,0.234
10.284,0.062,0.105,0.078,0.144
10.294,0.061,-0.146,0.007,0.158
10.305,0.031,-0.109,0.076,0.137
10.315,0.013,-0.249,0.025,0.251
10.325,0.086,-0.063,0.019,0.109
10.335,-0.03,-0.191,0.004,0.193
10.345,-0.016,-0.095,-0.09,0.132
10.355,-0.029,-0.148,0.146,0.21
10.365,0.037,-0.192,-0.057,0.203
10.375,-0.033,-0.171,-0.087,0.195
10.385,-0.008,-0.089,-0.008,0.09
10.396,-0.008,-0.211,-0.061,0.22
10.406,0.019,-0.169,0.001,0.17
10.416,-0.054,-0.057,0.052,0.094
10.426,0.041,0.098,0.073,0.129
10.436,0.111,-0.073,0.059,0.146
10.446,0.045,-0.185,-0.021,0.192
10.456,0.13,-0.142,0.003,0.193
10.466,0.119,-0.111,0.027,0.164
10.476,0.086,-0.142,-0.125,0.208
10.487,0.044,-0.042,0.037,0.071
10.497,0.042,-0.098,-0.106,0.15
10.507,0.087,-0.043,0.138,0.168
10.517,0.018,-0.141,-0.035,0.146
10.527,-0.071,-0.01,-0.02,0.075
10.537,0.072,-0.13,-0.062,0.161
10.547,-0.025,-0.195,-0.053,0.204
10.557,-0.014,0.056,0.149,0.16
10.567,0.044,-0.264,0.054,0.273
10.578,0.039,-0.177,-0.121,0.218
10.588,-0.04,-0.169,0.092,0.196
10.598,0.055,0.082,0.069,0.12
10.608,0.104,0.025,-0.035,0.112
10.618,-0.022,0.0,0.005,0.022
10.628,0.123,-0.146,-0.018,0.192
10.638,-0.047,0.074,0.12,0.149
10.648,0.174,-0.09,-0.075,0.21
10.658,0.023,-0.042,-0.01,0.049
10.669,0.056,-0.106,-0.051,0.13
10.679,-0.066,-0.124,-0.123,0.186
10.689,0.044,-0.14,0.13,0.196
10.699,0.062,-0.137,-0.107,0.184
10.709,0.043,-0.071,-0.01,0.084
10.719,0.015,-0.09,-0.148,0.174
10.729,-0.008,-0.122,-0.055,0.134
10.739,0.117,0.001,0.001,0.117
10.749,0.051,-0.357,-0.087,0.371
10.76,0.142,-0.078,0.011,0.163
10.77,0.018,-0.061,-0.05,0.081
10.78,0.024,-0.027,0.049,0.061
10.79,0.099,-0.123,0.063,0.17
10.8,-0.047,-0.101,-0.075,0.135
10.81,-0.023,-0.039,-0.029,0.054
10.82,0.116,0.002,-0.023,0.118
10.83,-0.02,-0.141,0.007,0.142
10.84,-0.059,-0.095,-0.036,0.118
10.851,0.162,0.018,-0.025,0.165
10.861,-0.034,-0.285,-0.056,0.293
10.871,0.061,-0.17,-0.032,0.183
10.881,0.054,0.003,0.05,0.074
10.891,-0.119,-0.026,0.003,0.122
10.901,0.034,-0.071,0.006,0.079
10.911,0.076,-0.148,0.007,0.167
10.921,0.071,-0.182,-0.055,0.203
10.931,0.103,-0.158,-0.023,0.19
10.942,0.026,0.014,-0.122,0.125
10.952,0.092,-0.16,0.042,0.189
10.962,0.007,-0.1,-0.242,0.263
10.972,-0.036,-0.168,-0.055,0.18
10.982,-0.03,-0.039,0.031,0.058
10.992,-0.04,-0.149,-0.146,0.212
11.002,0.108,-0.113,-0.023,0.158
11.012,-0.044,-0.239,-0.099,0.262
11.022,0.063,-0.232,-0.078,0.253
11.033,0.031,-0.102,0.013,0.107
11.043,0.04,-0.207,-0.04,0.215
11.053,0.128,0.068,-0.197,0.244
11.063,0.019,-0.264,-0.124,0.292
11.073,0.082,-0.162,0.012,0.182
11.083,0.047,-0.096,-0.025,0.109
11.093,0.035,-0.125,0.065,0.145
11.103,0.182,-0.183,0.06,0.265
11.113,-0.043,-0.17,-0.083,0.194
11.124,0.12,-0.171,0.116,0.239
11.134,0.082,-0.114,-0.059,0.152
11.144,0.013,0.066,-0.128,0.145
11.154,0.139,-0.082,-0.106,0.193
11.164,-0.07,0.007,-0.22,0.231
11.174,0.009,-0.045,0.05,0.068
11.184,-0.033,0.005,0.048,0.059
11.194,0.064,-0.307,-0.135,0.342
11.205,-0.029,-0.106,-0.081,0.136
11.215,0.064,0.024,-0.059,0.09
11.225,0.026,-0.125,-0.133,0.184
11.235,0.008,0.064,-0.189,0.2
11.245,0.059,0.043,-0.082,0.11
11.255,0.019,-0.112,-0.09,0.145
