time,ax,ay,az,atotal
0.0,0.2,0.04,0.27,0.34
0.01,0.22,-0.06,0.21,0.31
0.02,0.25,-0.18,0.05,0.3
0.03,0.14,-0.26,-0.05,0.3
0.04,0.02,-0.3,-0.02,0.3
0.05,0.01,-0.26,0.01,0.26
0.061,0.03,-0.21,0.05,0.21
0.071,0.07,-0.15,0.06,0.18
0.081,0.02,-0.14,0.1,0.17
0.091,0.03,-0.13,0.13,0.19
0.101,0.0,-0.15,0.12,0.19
0.111,-0.02,-0.15,0.11,0.19
0.121,0.0,-0.16,0.05,0.16
0.131,-0.02,-0.15,0.03,0.16
0.141,-0.01,-0.12,0.1,0.16
0.151,0.06,-0.09,0.09,0.14
0.161,0.11,-0.11,0.02,0.16
0.171,0.07,-0.11,0.07,0.15
0.181,0.07,-0.06,0.08,0.12
0.191,0.05,-0.02,0.07,0.09
0.201,0.07,0.02,0.11,0.13
0.212,0.12,0.04,0.05,0.14
0.222,0.14,-0.02,-0.01,0.15
0.232,0.15,-0.05,-0.03,0.16
0.242,0.13,-0.05,-0.06,0.16
0.252,0.08,-0.07,-0.02,0.11
0.262,0.13,-0.06,0.01,0.14
0.272,0.13,-0.05,0.03,0.14
0.282,0.13,-0.04,0.05,0.15
0.292,0.14,-0.01,0.03,0.15
0.302,0.13,0.03,-0.01,0.13
0.312,0.06,0.03,0.0,0.07
0.322,0.04,0.03,0.01,0.05
0.332,0.04,0.01,-0.0,0.04
0.342,0.05,-0.02,0.03,0.06
0.353,0.09,-0.03,0.01,0.09
0.363,0.09,0.0,0.02,0.1
0.373,0.1,0.04,0.05,0.11
0.383,0.14,0.01,0.03,0.14
0.393,0.14,-0.07,-0.0,0.15
0.403,0.07,-0.06,-0.04,0.1
0.413,-0.01,-0.06,0.02,0.07
0.423,0.05,-0.13,0.09,0.16
0.433,0.13,-0.13,0.09,0.2
0.443,0.11,-0.09,0.01,0.14
0.453,0.0,-0.11,0.02,0.11
0.463,-0.02,-0.08,0.04,0.09
0.473,0.01,-0.06,0.08,0.1
0.484,0.11,-0.03,0.07,0.13
0.494,0.08,-0.02,0.02,0.09
0.504,-0.0,-0.06,-0.0,0.06
0.514,0.0,-0.1,0.03,0.1
0.524,0.03,-0.11,0.06,0.13
0.534,0.06,-0.07,0.02,0.1
0.544,0.04,-0.11,-0.05,0.12
0.554,0.05,-0.1,0.02,0.11
0.564,0.08,-0.03,0.07,0.11
0.574,0.07,0.01,0.02,0.07
0.584,0.1,-0.02,0.02,0.1
0.594,0.12,-0.01,0.03,0.13
0.604,0.08,-0.01,0.02,0.08
0.615,0.05,-0.03,0.01,0.06
0.625,0.02,-0.05,0.02,0.06
0.635,0.03,-0.05,0.03,0.07
0.645,0.06,-0.07,0.01,0.09
0.655,0.03,-0.11,-0.03,0.12
0.665,0.01,-0.1,0.03,0.11
0.675,0.03,-0.07,0.07,0.1
0.685,0.05,-0.05,0.1,0.12
0.695,0.1,-0.07,0.06,0.13
0.705,0.1,-0.1,0.01,0.14
0.715,0.06,-0.08,0.01,0.11
0.725,0.05,-0.08,0.04,0.11
0.735,0.08,-0.12,0.06,0.16
0.745,0.08,-0.07,0.06,0.12
0.756,0.06,0.0,0.09,0.11
0.766,0.11,-0.02,0.04,0.12
0.776,0.1,-0.12,-0.04,0.16
0.786,0.04,-0.09,-0.03,0.1
0.796,-0.02,-0.01,0.01,0.03
0.806,0.03,-0.01,0.03,0.04
0.816,0.09,-0.07,0.05,0.12
0.826,0.11,-0.02,0.09,0.14
0.836,0.1,0.04,0.11,0.16
0.846,0.11,-0.06,0.05,0.13
0.856,0.06,-0.17,0.02,0.18
0.866,0.02,-0.11,-0.02,0.12
0.876,0.02,-0.08,-0.04,0.09
0.887,0.08,-0.15,-0.07,0.18
0.897,0.07,-0.16,-0.0,0.18
0.907,0.06,-0.03,0.07,0.1
0.917,0.08,0.03,0.15,0.17
0.927,0.1,-0.01,0.18,0.21
0.937,0.09,0.01,0.14,0.17
0.947,0.06,-0.01,0.07,0.09
0.957,-0.02,-0.11,0.03,0.12
0.967,-0.04,-0.12,0.03,0.13
0.977,0.03,-0.08,-0.02,0.09
0.987,0.11,-0.12,-0.02,0.16
0.997,0.17,-0.1,-0.02,0.2
1.007,0.09,-0.12,-0.04,0.15
1.018,0.03,-0.12,0.05,0.13
1.027,0.09,-0.07,0.06,0.13
1.038,0.11,-0.06,0.01,0.13
1.048,0.08,-0.07,0.04,0.11
1.058,0.07,-0.04,0.05,0.1
1.068,0.06,-0.03,-0.0,0.07
1.078,0.02,-0.05,-0.0,0.05
1.088,0.0,-0.02,0.02,0.03
1.098,0.03,-0.01,0.02,0.04
1.108,0.05,-0.03,0.02,0.06
1.118,0.06,-0.03,0.04,0.08
1.128,0.07,-0.03,0.07,0.1
1.138,0.11,-0.03,0.1,0.15
1.149,0.13,-0.03,0.04,0.14
1.159,0.1,-0.08,-0.02,0.13
1.169,0.06,-0.13,-0.06,0.15
1.179,0.04,-0.13,-0.04,0.14
1.189,0.01,-0.13,0.03,0.13
1.199,0.05,-0.08,0.06,0.12
1.209,0.1,-0.04,0.04,0.12
1.219,0.1,-0.01,0.08,0.13
1.229,0.11,0.01,0.08,0.14
1.239,0.09,-0.04,0.05,0.11
1.249,0.04,-0.09,0.01,0.1
1.259,0.02,-0.08,0.02,0.08
1.269,0.02,-0.09,0.08,0.12
1.279,0.06,-0.05,0.07,0.11
1.289,0.09,-0.04,0.04,0.1
1.3,0.08,-0.07,-0.0,0.11
1.309,0.03,-0.11,0.07,0.14
1.32,0.05,-0.12,0.06,0.14
1.33,0.1,-0.13,0.0,0.16
1.34,0.11,-0.17,-0.0,0.2
1.35,0.09,-0.13,0.03,0.16
1.36,0.06,-0.05,0.07,0.11
1.37,0.09,-0.03,0.04,0.11
1.38,0.07,-0.07,0.05,0.11
1.39,0.02,-0.05,0.14,0.15
1.4,0.01,0.0,0.17,0.17
1.41,0.07,0.0,0.11,0.13
1.42,0.08,-0.01,0.07,0.11
1.431,0.09,-0.03,0.01,0.09
1.441,0.05,-0.07,-0.11,0.14
1.451,-0.05,-0.15,-0.15,0.22
1.461,-0.08,-0.13,-0.16,0.22
1.471,-0.01,-0.07,-0.14,0.16
1.481,0.02,-0.04,-0.04,0.07
1.491,0.07,0.03,0.06,0.1
1.501,0.13,0.11,0.14,0.22
1.511,0.18,0.11,0.12,0.24
1.521,0.2,0.06,0.04,0.21
1.531,0.17,-0.07,-0.06,0.19
1.541,0.06,-0.14,-0.09,0.18
1.551,-0.05,-0.12,-0.07,0.15
1.561,-0.02,-0.08,0.04,0.09
1.572,0.08,-0.02,0.11,0.14
1.582,0.15,0.02,0.11,0.19
1.591,0.15,-0.0,0.12,0.19
1.602,0.13,-0.04,0.16,0.21
1.612,0.13,-0.09,0.15,0.22
1.622,0.15,-0.12,0.12,0.22
1.632,0.18,-0.17,-0.02,0.25
1.642,0.1,-0.21,-0.04,0.23
1.652,0.07,-0.13,0.0,0.15
1.662,0.03,-0.05,0.05,0.08
1.672,0.04,-0.02,0.11,0.12
1.682,0.07,0.03,0.15,0.17
1.693,0.06,0.02,0.12,0.13
1.702,0.01,-0.02,0.07,0.08
1.712,-0.02,-0.04,0.01,0.05
1.723,-0.01,-0.09,-0.09,0.13
1.733,-0.0,-0.12,-0.14,0.18
1.743,0.02,-0.07,-0.17,0.19
1.753,0.05,-0.07,-0.17,0.19
1.763,0.03,-0.1,-0.11,0.15
1.773,0.03,-0.03,-0.08,0.09
1.783,0.02,0.02,-0.06,0.07
1.793,0.03,-0.0,0.03,0.04
1.803,0.03,0.0,0.11,0.11
1.813,0.05,0.05,0.12,0.14
1.823,0.07,0.01,0.07,0.1
1.833,0.1,-0.07,0.04,0.13
1.843,0.07,-0.1,0.07,0.14
1.854,0.04,-0.1,0.02,0.11
1.864,0.02,-0.15,0.05,0.16
1.874,0.06,-0.13,0.08,0.17
1.884,0.1,-0.09,0.09,0.16
1.894,0.11,-0.07,0.12,0.18
1.904,0.11,-0.1,0.11,0.19
1.914,0.1,-0.11,0.14,0.2
1.924,0.12,-0.09,0.14,0.21
1.934,0.12,-0.11,0.12,0.21
1.944,0.06,-0.11,0.09,0.15
1.954,0.06,-0.1,0.04,0.12
1.964,0.11,-0.09,0.01,0.14
1.974,0.1,-0.09,0.02,0.14
1.984,0.07,-0.05,0.04,0.1
1.994,0.06,-0.03,0.02,0.07
2.005,0.08,-0.02,0.01,0.08
2.015,0.06,-0.0,-0.02,0.07
2.025,0.04,-0.0,-0.01,0.04
2.035,0.02,-0.03,-0.04,0.06
2.045,-0.02,-0.05,-0.04,0.06
2.055,-0.0,-0.02,0.07,0.07
2.065,0.08,0.01,0.09,0.12
2.075,0.1,-0.03,0.03,0.1
2.085,0.07,-0.06,0.03,0.1
2.095,0.09,-0.08,0.04,0.13
2.105,0.08,-0.12,-0.0,0.15
2.115,0.04,-0.13,-0.04,0.15
2.126,0.03,-0.1,-0.01,0.11
2.136,0.04,-0.07,0.02,0.08
2.146,0.02,-0.05,0.05,0.07
2.156,0.02,-0.02,0.05,0.06
2.166,0.02,-0.03,0.06,0.07
2.176,0.01,-0.04,0.03,0.05
2.186,-0.01,-0.1,0.03,0.11
2.196,0.05,-0.12,0.03,0.13
2.206,0.05,-0.1,-0.03,0.11
2.216,0.05,-0.12,-0.0,0.12
2.226,0.11,-0.09,0.05,0.15
2.236,0.16,-0.02,0.07,0.17
2.246,0.17,-0.01,0.09,0.19
2.257,0.13,-0.04,0.05,0.14
2.267,0.12,-0.06,-0.01,0.13
2.277,0.03,-0.09,0.02,0.1
2.287,0.01,-0.05,0.03,0.06
2.297,0.06,-0.03,0.05,0.09
2.307,0.14,-0.04,0.11,0.18
2.317,0.15,-0.03,0.14,0.21
2.327,0.13,-0.04,0.07,0.15
2.337,0.1,-0.07,0.01,0.12
2.347,0.08,-0.07,0.01,0.11
2.357,0.05,-0.06,0.06,0.1
2.367,0.08,-0.04,0.04,0.1
2.377,0.09,-0.03,0.02,0.1
2.387,0.12,-0.05,-0.0,0.13
2.398,0.02,-0.07,0.03,0.08
2.408,-0.03,-0.04,0.1,0.12
2.418,0.02,0.01,0.11,0.11
2.428,0.07,0.02,0.07,0.1
2.438,0.07,-0.01,0.02,0.08
2.448,0.06,-0.04,-0.01,0.08
2.458,0.05,-0.08,-0.01,0.1
2.468,0.04,-0.09,-0.01,0.1
2.478,0.06,-0.1,-0.04,0.12
2.488,0.08,-0.09,-0.07,0.14
2.498,0.07,-0.08,-0.06,0.12
2.508,0.01,-0.08,-0.01,0.09
2.518,0.02,-0.04,0.04,0.06
2.528,0.04,-0.01,0.08,0.09
2.539,0.09,0.02,0.07,0.12
2.549,0.08,-0.06,0.03,0.1
2.559,0.0,-0.13,0.05,0.14
2.569,0.05,-0.08,0.02,0.09
2.579,0.11,-0.08,0.0,0.13
2.589,0.12,-0.08,0.08,0.16
2.599,0.16,-0.03,0.11,0.2
2.609,0.18,-0.03,0.06,0.19
2.619,0.12,-0.07,0.05,0.15
2.629,0.06,-0.09,0.02,0.11
2.639,0.02,-0.06,-0.01,0.07
2.649,0.02,-0.06,0.01,0.07
2.659,0.04,-0.08,0.06,0.11
2.67,0.1,-0.06,0.08,0.14
2.679,0.12,-0.03,0.08,0.15
2.69,0.11,-0.02,0.14,0.18
2.7,0.12,-0.03,0.11,0.17
2.71,0.1,-0.04,0.05,0.12
2.72,0.07,-0.06,0.0,0.09
2.73,0.08,-0.08,-0.02,0.11
2.74,0.08,-0.05,-0.07,0.11
2.75,0.03,-0.06,-0.08,0.1
2.76,0.01,-0.05,-0.01,0.05
2.77,0.07,0.0,0.03,0.07
2.78,0.09,-0.01,0.06,0.11
2.791,0.07,-0.06,0.05,0.1
2.8,0.04,-0.07,0.0,0.09
2.811,-0.02,-0.09,-0.0,0.09
2.821,0.0,-0.08,0.06,0.1
2.831,0.06,-0.07,0.04,0.1
2.841,0.06,-0.07,0.03,0.1
2.851,0.09,-0.08,0.1,0.15
2.861,0.12,-0.08,0.13,0.19
2.871,0.15,-0.1,0.04,0.18
2.881,0.08,-0.17,0.01,0.19
2.891,0.05,-0.16,0.06,0.17
2.901,0.07,-0.1,0.06,0.14
2.911,0.11,-0.08,0.03,0.14
2.921,0.08,-0.07,0.04,0.11
2.931,0.07,-0.01,0.09,0.12
2.941,0.03,-0.0,0.06,0.07
2.952,0.02,-0.03,0.01,0.04
2.961,0.01,-0.05,-0.01,0.05
2.972,-0.0,-0.02,0.07,0.08
2.982,0.04,0.02,0.11,0.12
2.992,0.12,-0.02,0.04,0.13
3.002,0.13,-0.08,-0.09,0.18
3.012,0.06,-0.11,-0.1,0.16
3.022,0.02,-0.1,-0.06,0.12
3.032,0.03,-0.06,-0.06,0.1
3.042,0.04,-0.03,-0.07,0.09
3.052,0.07,0.03,-0.0,0.07
3.062,0.08,0.06,0.06,0.12
3.072,0.1,0.06,0.1,0.15
3.082,0.09,0.04,0.08,0.13
3.092,0.08,-0.0,0.04,0.09
3.103,0.07,-0.05,0.01,0.08
3.113,0.04,-0.09,-0.02,0.1
3.123,0.02,-0.08,0.0,0.09
3.133,0.08,-0.06,0.05,0.11
3.143,0.13,-0.03,0.06,0.14
3.153,0.14,-0.04,0.1,0.18
3.163,0.15,-0.07,0.1,0.19
3.173,0.15,-0.09,-0.05,0.18
3.183,0.05,-0.14,-0.08,0.17
3.193,-0.02,-0.14,-0.02,0.14
3.203,0.01,-0.09,0.04,0.09
3.213,0.13,-0.03,0.06,0.15
3.224,0.15,-0.02,0.06,0.16
3.234,0.1,-0.0,0.08,0.13
3.244,0.05,-0.01,0.1,0.11
3.254,0.0,-0.05,0.07,0.09
3.264,-0.03,-0.09,0.03,0.1
3.274,-0.03,-0.1,0.02,0.11
3.284,0.03,-0.08,0.09,0.12
3.294,0.12,-0.03,0.06,0.14
3.304,0.12,-0.04,0.01,0.13
3.314,0.11,-0.08,-0.01,0.13
3.324,0.07,-0.1,-0.02,0.13
3.334,0.05,-0.11,-0.03,0.13
3.344,0.02,-0.11,-0.03,0.12
3.354,0.02,-0.09,-0.02,0.09
3.365,0.01,-0.06,0.01,0.06
3.375,-0.01,-0.04,0.07,0.08
3.385,0.03,-0.03,0.1,0.11
3.395,0.06,-0.05,0.1,0.13
3.405,0.08,-0.04,0.1,0.13
3.415,0.07,-0.06,0.07,0.11
3.425,0.05,-0.08,0.1,0.14
3.435,0.07,-0.08,0.08,0.13
3.445,0.1,-0.06,0.03,0.12
3.455,0.11,-0.03,0.0,0.11
3.465,0.11,-0.01,0.01,0.11
3.476,0.09,-0.01,-0.02,0.09
3.486,0.07,-0.04,-0.08,0.12
3.496,-0.01,-0.07,-0.06,0.1
3.506,0.03,-0.02,0.03,0.04
3.516,0.07,0.01,0.09,0.11
3.526,0.08,0.02,0.07,0.11
3.536,0.1,0.0,0.01,0.1
3.546,0.13,-0.06,0.02,0.15
3.556,0.12,-0.07,0.03,0.14
3.566,0.09,-0.04,0.01,0.1
3.576,0.12,-0.08,-0.03,0.14
3.586,0.08,-0.11,0.0,0.14
3.596,0.06,-0.06,0.03,0.09
3.607,0.05,-0.03,0.06,0.08
3.616,0.05,-0.05,0.1,0.13
3.627,0.06,-0.04,0.12,0.14
3.637,0.07,-0.04,0.12,0.15
3.647,0.11,-0.07,0.07,0.15
3.657,0.11,-0.14,-0.05,0.18
3.667,0.02,-0.18,-0.05,0.19
3.677,0.01,-0.14,0.03,0.15
3.687,0.07,-0.09,-0.0,0.11
3.697,0.06,-0.06,-0.02,0.09
3.707,0.06,-0.0,0.09,0.11
3.717,0.1,0.05,0.12,0.16
3.727,0.11,0.02,0.09,0.15
3.737,0.13,-0.0,0.02,0.13
3.747,0.09,-0.03,-0.05,0.11
3.758,0.01,-0.03,-0.05,0.06
3.768,0.03,-0.05,-0.11,0.13
3.778,0.01,-0.06,-0.05,0.08
3.788,-0.0,0.0,0.05,0.05
3.798,0.02,0.05,0.06,0.08
3.808,0.08,0.06,0.06,0.12
3.818,0.08,0.03,0.06,0.1
3.828,0.07,-0.01,0.04,0.08
3.838,0.05,-0.08,0.04,0.1
3.848,0.11,-0.15,0.02,0.18
3.858,0.04,-0.18,-0.03,0.19
3.868,-0.01,-0.18,-0.04,0.18
3.878,0.05,-0.17,0.04,0.18
3.889,0.12,-0.15,0.06,0.2
3.898,0.09,-0.1,0.04,0.15
3.908,0.06,-0.07,0.1,0.14
3.919,0.09,-0.07,0.12,0.16
3.929,0.12,-0.07,0.13,0.19
3.939,0.08,-0.03,0.07,0.12
3.949,0.02,-0.07,-0.01,0.07
3.959,0.01,-0.13,-0.02,0.13
3.969,-0.02,-0.11,-0.05,0.12
3.979,-0.04,-0.09,-0.02,0.1
3.989,0.03,-0.04,0.06,0.08
3.999,0.1,0.01,0.14,0.17
4.009,0.15,0.03,0.17,0.23
4.019,0.18,0.03,0.09,0.2
4.029,0.13,-0.01,0.01,0.13
4.039,0.09,-0.03,-0.02,0.1
4.05,0.1,-0.06,-0.08,0.14
4.06,0.04,-0.08,-0.07,0.11
4.07,0.02,-0.04,-0.01,0.04
4.08,0.06,0.01,0.04,0.08
4.09,0.11,0.01,0.07,0.14
4.1,0.12,0.02,0.05,0.13
4.11,0.08,-0.0,0.04,0.09
4.12,0.06,-0.01,0.05,0.08
4.13,0.05,-0.03,-0.01,0.06
4.14,0.1,-0.04,-0.1,0.14
4.15,0.07,-0.06,-0.12,0.15
4.16,0.03,-0.06,-0.06,0.09
4.171,0.06,-0.0,0.05,0.08
4.181,0.11,0.06,0.08,0.15
4.191,0.17,0.05,0.03,0.18
4.201,0.15,-0.01,-0.03,0.15
4.211,0.09,-0.07,0.03,0.12
4.221,0.04,-0.07,0.09,0.12
4.231,0.06,-0.05,0.12,0.14
4.241,0.09,-0.05,0.09,0.14
4.251,0.14,-0.08,0.05,0.17
4.261,0.1,-0.13,0.01,0.16
4.271,0.02,-0.13,0.05,0.14
4.281,0.02,-0.12,0.08,0.14
4.291,0.08,-0.1,0.1,0.16
4.301,0.11,-0.11,0.11,0.18
4.311,0.1,-0.11,0.09,0.18
4.321,0.06,-0.13,0.07,0.16
4.332,-0.01,-0.12,0.09,0.15
4.342,-0.0,-0.11,0.03,0.11
4.352,0.05,-0.13,-0.07,0.15
4.362,0.01,-0.13,-0.04,0.14
4.372,0.01,-0.08,0.05,0.09
4.382,0.04,-0.04,0.11,0.12
4.392,0.12,-0.03,0.06,0.14
4.402,0.1,-0.07,0.05,0.14
4.412,0.09,-0.08,0.12,0.18
4.422,0.1,-0.05,0.15,0.19
4.432,0.12,-0.05,0.05,0.14
4.442,0.07,-0.08,-0.01,0.1
4.452,0.03,-0.05,0.05,0.08
4.463,0.09,0.02,0.1,0.13
4.473,0.13,0.03,0.04,0.14
4.483,0.11,-0.03,-0.02,0.11
4.493,0.03,-0.05,-0.0,0.06
4.503,0.04,-0.05,0.01,0.07
4.513,0.07,-0.07,-0.02,0.1
4.523,0.06,-0.07,-0.08,0.13
4.533,0.06,-0.05,-0.0,0.08
4.543,0.16,0.02,0.05,0.17
4.553,0.18,0.02,0.04,0.18
4.563,0.16,-0.04,0.03,0.16
4.573,0.13,-0.02,0.05,0.14
4.583,0.08,-0.02,0.04,0.09
4.594,-0.01,-0.08,-0.03,0.08
4.604,-0.0,-0.12,-0.11,0.16
4.614,-0.05,-0.14,-0.05,0.16
4.624,-0.06,-0.07,0.11,0.14
4.634,0.04,0.04,0.12,0.13
4.644,0.13,0.02,0.09,0.16
4.654,0.15,-0.01,0.12,0.19
4.664,0.12,-0.01,0.1,0.16
4.674,0.08,-0.06,0.01,0.1
4.684,0.1,-0.11,-0.07,0.16
4.694,0.07,-0.16,-0.04,0.18
4.704,0.01,-0.12,0.01,0.12
4.714,0.01,-0.06,0.04,0.07
4.725,0.06,-0.01,0.05,0.08
4.735,0.09,0.03,0.07,0.12
4.745,0.07,0.04,0.09,0.12
4.755,0.07,0.01,0.1,0.12
4.765,0.1,-0.02,0.03,0.1
4.775,0.07,-0.1,-0.05,0.13
4.785,0.05,-0.16,-0.06,0.18
4.795,0.06,-0.11,-0.01,0.13
4.805,0.06,-0.03,-0.01,0.06
4.815,0.08,0.0,0.03,0.08
4.825,0.12,-0.0,0.04,0.13
4.835,0.1,0.01,0.05,0.12
4.845,0.07,0.02,0.06,0.09
4.855,0.07,-0.02,0.03,0.08
4.865,0.06,-0.07,0.01,0.09
4.876,0.03,-0.08,0.03,0.09
4.886,0.05,-0.05,0.02,0.07
4.896,0.13,-0.06,-0.03,0.14
4.906,0.11,-0.08,-0.05,0.15
4.916,0.05,-0.06,0.02,0.08
4.926,0.05,-0.04,0.04,0.07
4.936,0.07,-0.03,0.01,0.08
4.946,0.07,-0.03,-0.01,0.07
4.956,0.03,-0.02,0.04,0.05
4.966,0.04,-0.01,0.04,0.05
4.976,0.05,-0.05,0.05,0.09
4.986,0.06,-0.05,0.05,0.09
4.996,0.04,-0.03,0.06,0.07
5.007,0.08,-0.05,0.04,0.1
5.017,0.05,-0.1,0.02,0.12
5.027,0.02,-0.1,0.04,0.1
5.037,0.01,-0.11,0.04,0.12
5.047,0.02,-0.14,-0.02,0.14
5.057,0.01,-0.15,-0.06,0.16
5.067,0.05,-0.13,-0.04,0.15
5.077,0.05,-0.12,0.0,0.13
5.087,0.07,-0.05,0.08,0.12
5.097,0.11,0.02,0.09,0.14
5.107,0.07,0.01,0.1,0.12
5.117,0.06,-0.0,0.16,0.17
5.128,0.06,0.02,0.1,0.12
5.138,0.02,-0.04,-0.01,0.05
5.148,0.02,-0.09,-0.04,0.1
5.158,0.06,-0.09,0.0,0.11
5.168,0.1,-0.09,0.01,0.14
5.178,0.11,-0.09,0.0,0.14
5.188,0.14,-0.08,-0.0,0.16
5.198,0.12,-0.09,0.06,0.16
5.208,0.1,-0.05,0.1,0.15
5.218,0.08,-0.04,0.09,0.13
5.228,0.1,-0.07,0.03,0.12
5.238,0.07,-0.09,-0.01,0.12
5.248,0.01,-0.09,-0.03,0.1
5.258,0.01,-0.05,-0.01,0.05
5.268,0.04,-0.02,-0.03,0.05
5.278,0.05,0.0,-0.01,0.05
5.288,0.08,0.02,0.04,0.09
5.299,0.11,0.02,0.04,0.12
5.309,0.1,-0.01,0.02,0.1
5.319,0.07,-0.05,0.04,0.1
5.329,0.08,-0.06,0.07,0.12
5.339,0.11,-0.06,0.07,0.14
5.349,0.13,-0.07,0.06,0.16
5.359,0.1,-0.11,-0.0,0.15
5.369,0.06,-0.11,-0.01,0.12
5.379,0.04,-0.07,0.06,0.1
5.39,0.06,-0.07,0.06,0.11
5.399,0.09,-0.04,-0.01,0.1
5.41,0.05,-0.05,-0.03,0.08
5.42,0.03,-0.03,0.01,0.05
5.43,0.02,-0.02,0.02,0.04
5.44,0.03,-0.04,0.04,0.07
5.45,0.08,-0.05,0.06,0.11
5.46,0.12,-0.03,0.06,0.13
5.47,0.11,-0.03,0.05,0.12
5.48,0.11,-0.05,0.06,0.13
5.49,0.1,-0.03,0.04,0.11
5.5,0.09,-0.01,-0.01,0.09
5.51,0.08,-0.05,-0.07,0.11
5.52,0.02,-0.08,-0.08,0.11
5.53,-0.01,-0.02,-0.05,0.05
5.54,0.02,0.01,-0.03,0.04
5.55,0.09,-0.02,0.01,0.09
5.561,0.11,-0.02,0.04,0.12
5.571,0.08,0.01,-0.0,0.08
5.581,0.08,-0.04,0.04,0.09
5.591,0.1,-0.07,0.11,0.17
5.601,0.13,-0.02,0.08,0.15
5.611,0.14,-0.04,0.09,0.17
5.621,0.15,-0.08,0.07,0.19
5.631,0.13,-0.09,0.03,0.16
5.641,0.06,-0.1,0.01,0.12
5.651,0.01,-0.12,0.05,0.13
5.661,0.06,-0.11,0.07,0.14
5.671,0.09,-0.11,0.1,0.17
5.681,0.09,-0.07,0.12,0.17
5.692,0.15,-0.07,0.06,0.18
5.702,0.11,-0.14,-0.01,0.18
5.712,-0.03,-0.13,0.06,0.15
5.722,-0.04,-0.03,0.11,0.12
5.732,0.05,0.02,0.08,0.09
5.742,0.1,0.03,0.08,0.13
5.752,0.09,0.04,0.1,0.14
5.762,0.09,0.02,0.12,0.15
5.772,0.09,-0.01,0.01,0.09
5.782,0.06,-0.07,-0.07,0.12
5.792,0.06,-0.1,-0.13,0.17
5.802,0.01,-0.12,-0.15,0.19
5.812,0.02,-0.08,-0.13,0.15
5.822,0.04,-0.05,-0.09,0.11
5.833,0.05,-0.01,0.01,0.06
5.843,0.1,0.04,0.07,0.13
5.853,0.11,0.03,0.06,0.13
5.863,0.09,-0.02,0.06,0.11
5.873,0.07,-0.05,-0.01,0.09
5.883,0.01,-0.09,-0.02,0.1
5.893,0.02,-0.08,0.03,0.08
5.903,0.11,-0.06,0.01,0.13
5.913,0.11,-0.08,0.02,0.14
5.923,0.14,-0.08,0.05,0.17
5.933,0.1,-0.1,0.08,0.16
5.943,0.07,-0.09,0.16,0.2
5.953,0.12,-0.07,0.17,0.22
5.963,0.15,-0.09,0.07,0.19
5.974,0.12,-0.13,0.03,0.18
5.983,0.04,-0.08,0.1,0.14
5.994,0.05,-0.0,0.1,0.11
6.004,0.07,-0.03,0.03,0.09
6.014,0.08,-0.05,0.01,0.1
6.024,0.07,-0.01,-0.01,0.08
6.034,0.06,-0.01,-0.03,0.07
6.044,0.02,-0.06,-0.04,0.08
6.054,0.0,-0.05,-0.07,0.08
6.064,0.05,-0.01,-0.09,0.1
6.074,0.05,-0.04,-0.04,0.08
6.084,0.05,0.0,0.03,0.06
6.094,0.08,0.05,0.07,0.12
6.105,0.1,0.03,0.08,0.13
6.115,0.08,0.01,0.04,0.09
6.125,0.04,-0.02,0.0,0.04
6.135,0.04,-0.05,0.01,0.06
6.145,0.05,-0.07,-0.0,0.09
6.155,0.04,-0.11,-0.05,0.13
6.165,0.04,-0.12,-0.04,0.13
6.175,0.1,-0.07,0.01,0.12
6.185,0.11,-0.07,0.03,0.14
6.195,0.08,-0.06,0.05,0.11
6.205,0.07,-0.03,0.07,0.1
6.215,0.08,-0.02,0.12,0.15
6.225,0.11,-0.05,0.12,0.17
6.236,0.14,-0.1,0.08,0.19
6.245,0.12,-0.14,0.06,0.19
6.256,0.09,-0.12,0.05,0.16
6.266,0.06,-0.12,0.03,0.14
6.276,0.07,-0.11,0.0,0.13
6.286,0.04,-0.06,-0.02,0.08
6.296,0.06,-0.01,-0.0,0.06
6.306,0.06,0.02,0.05,0.08
6.316,0.08,0.03,0.06,0.1
6.326,0.06,0.03,0.05,0.08
6.336,0.05,0.04,0.05,0.08
6.346,0.07,0.0,0.04,0.08
6.356,0.07,-0.05,0.02,0.09
6.367,0.05,-0.04,-0.01,0.07
6.376,0.06,-0.05,-0.0,0.07
6.387,0.07,-0.06,0.01,0.09
6.397,0.04,-0.09,0.05,0.11
6.407,0.06,-0.06,0.04,0.09
6.417,0.07,-0.06,0.01,0.09
6.427,0.13,-0.1,-0.03,0.16
6.437,0.08,-0.14,-0.05,0.17
6.447,-0.0,-0.12,-0.04,0.13
6.457,-0.01,-0.07,-0.02,0.07
6.467,0.04,-0.05,-0.01,0.06
6.477,0.05,-0.03,0.07,0.09
6.487,0.08,0.03,0.14,0.16
6.497,0.1,0.03,0.11,0.15
6.508,0.11,-0.03,0.05,0.12
6.517,0.08,-0.07,-0.01,0.11
6.528,0.05,-0.11,-0.03,0.12
6.538,0.01,-0.14,-0.03,0.14
6.548,0.04,-0.09,-0.03,0.1
6.558,0.08,-0.04,-0.02,0.09
6.568,0.06,-0.05,0.02,0.08
6.578,0.07,-0.01,0.07,0.1
6.588,0.1,0.03,0.11,0.15
6.598,0.14,-0.03,0.11,0.18
6.608,0.1,-0.08,0.07,0.15
6.618,0.06,-0.07,0.08,0.13
6.628,0.11,-0.06,0.04,0.13
6.639,0.08,-0.09,0.01,0.12
6.648,0.03,-0.08,0.02,0.09
6.659,0.08,-0.05,0.01,0.09
6.669,0.13,-0.04,-0.02,0.14
6.679,0.07,-0.03,0.04,0.08
6.689,0.03,0.01,0.04,0.06
6.699,0.1,0.01,-0.02,0.11
6.709,0.08,-0.02,-0.03,0.09
6.719,0.07,0.0,-0.02,0.07
6.729,0.08,-0.0,-0.01,0.08
6.739,0.11,-0.01,-0.01,0.11
6.749,0.11,-0.01,0.0,0.12
6.759,0.11,-0.01,0.05,0.12
6.769,0.13,-0.03,0.08,0.15
6.779,0.13,-0.09,0.04,0.16
6.79,0.07,-0.12,0.02,0.14
6.8,0.01,-0.12,0.04,0.13
6.81,0.05,-0.11,0.05,0.13
6.82,0.11,-0.1,0.11,0.19
6.83,0.13,-0.05,0.18,0.22
6.84,0.12,-0.03,0.2,0.24
6.85,0.12,-0.05,0.21,0.25
6.86,0.12,-0.09,0.13,0.19
6.87,0.07,-0.16,0.01,0.17
6.88,0.01,-0.19,-0.05,0.19
6.89,0.03,-0.16,-0.08,0.18
6.9,0.05,-0.06,-0.08,0.11
6.91,0.05,0.01,-0.02,0.06
6.92,0.09,0.06,-0.07,0.13
6.931,0.06,0.09,-0.06,0.12
6.941,0.02,0.09,0.02,0.1
6.951,0.01,0.1,0.01,0.1
6.961,-0.02,0.07,-0.0,0.07
6.971,0.05,0.05,0.04,0.08
6.981,0.11,0.03,0.07,0.13
6.991,0.1,0.0,0.07,0.12
7.001,0.1,-0.05,0.02,0.11
7.011,0.1,-0.11,-0.01,0.15
7.021,0.06,-0.14,-0.01,0.16
7.031,0.06,-0.15,-0.02,0.16
7.041,0.11,-0.14,-0.0,0.18
7.052,0.16,-0.14,0.03,0.22
7.061,0.11,-0.11,0.12,0.19
7.072,0.07,-0.02,0.16,0.18
7.082,0.07,-0.01,0.11,0.13
7.092,0.08,-0.06,0.08,0.13
7.102,0.02,-0.06,0.08,0.1
7.112,0.0,-0.05,0.03,0.06
7.122,0.02,-0.09,0.03,0.1
7.132,0.05,-0.1,0.02,0.12
7.142,0.09,-0.07,0.02,0.11
7.152,0.11,-0.05,0.04,0.12
7.162,0.11,-0.04,0.03,0.12
7.173,0.12,-0.03,0.06,0.14
7.182,0.13,-0.01,0.06,0.15
7.193,0.11,0.02,0.04,0.12
7.203,0.12,0.03,0.03,0.12
7.213,0.11,0.01,-0.0,0.11
7.223,0.06,0.01,-0.03,0.07
7.233,-0.0,0.01,-0.04,0.04
7.243,0.01,-0.03,-0.01,0.04
7.253,0.04,-0.03,0.02,0.05
7.263,0.08,-0.02,-0.02,0.09
7.273,0.06,-0.07,-0.05,0.11
7.283,0.04,-0.08,0.01,0.1
7.293,0.11,-0.05,0.07,0.14
7.303,0.15,-0.06,0.1,0.19
7.313,0.17,-0.09,0.15,0.24
7.323,0.2,-0.09,0.14,0.26
7.333,0.16,-0.11,0.08,0.21
7.344,0.03,-0.15,0.07,0.17
7.354,0.0,-0.13,0.08,0.15
7.364,0.04,-0.1,0.09,0.14
7.374,0.08,-0.05,0.14,0.16
7.384,0.1,-0.01,0.11,0.15
7.394,0.08,0.01,0.08,0.12
7.404,0.04,-0.01,0.0,0.04
7.414,-0.02,-0.06,-0.11,0.12
7.424,-0.07,-0.07,-0.15,0.18
7.434,-0.08,-0.04,-0.12,0.15
7.444,-0.0,0.01,-0.12,0.12
7.455,0.05,0.06,-0.13,0.15
7.465,0.05,0.08,-0.11,0.15
7.475,0.02,0.08,-0.07,0.11
7.484,0.05,0.02,-0.04,0.07
7.495,0.06,-0.03,-0.04,0.08
7.505,0.06,-0.05,-0.03,0.08
7.515,0.07,-0.07,0.02,0.1
7.525,0.12,-0.07,0.06,0.16
7.535,0.13,-0.06,0.09,0.17
7.545,0.16,-0.06,0.1,0.19
7.555,0.16,-0.08,0.09,0.2
7.565,0.17,-0.07,0.12,0.22
7.575,0.14,-0.05,0.2,0.25
7.585,0.17,-0.02,0.21,0.27
7.595,0.18,-0.03,0.18,0.25
7.605,0.14,-0.05,0.16,0.21
7.616,0.1,-0.07,0.12,0.17
7.626,0.09,-0.1,0.04,0.14
7.636,0.07,-0.13,0.05,0.16
7.646,0.07,-0.15,-0.01,0.16
7.656,0.06,-0.08,-0.11,0.15
7.666,0.08,-0.06,-0.05,0.11
7.676,0.12,-0.05,-0.03,0.13
7.686,0.1,-0.03,-0.04,0.11
7.696,0.13,0.02,-0.02,0.13
7.706,0.08,0.02,0.01,0.09
7.716,0.04,0.03,0.05,0.07
7.726,0.04,0.02,0.0,0.05
7.737,0.0,-0.05,-0.1,0.11
7.746,-0.07,-0.08,-0.12,0.16
7.756,-0.06,-0.07,-0.1,0.13
7.767,-0.02,-0.06,-0.06,0.09
7.777,0.04,-0.01,0.04,0.06
7.787,0.08,0.04,0.08,0.12
7.797,0.1,0.04,0.1,0.14
7.807,0.09,0.03,0.12,0.16
7.817,0.07,-0.01,0.12,0.14
7.827,0.05,-0.07,0.12,0.15
7.837,0.07,-0.13,0.07,0.17
7.847,0.03,-0.15,0.04,0.16
7.857,0.14,-0.14,-0.0,0.2
7.867,0.1,-0.25,0.01,0.27
7.878,0.09,-0.21,0.1,0.25
7.888,0.15,-0.09,0.12,0.22
7.898,0.14,-0.08,0.12,0.2
7.908,0.14,-0.08,0.1,0.18
7.918,0.12,-0.05,0.05,0.14
7.928,0.1,-0.06,0.03,0.12
7.938,0.07,-0.09,0.0,0.12
7.948,0.08,-0.08,-0.05,0.13
7.958,0.07,-0.07,-0.05,0.11
7.968,0.06,0.01,0.02,0.07
7.978,0.09,0.1,0.03,0.14
7.988,0.08,0.1,0.04,0.14
7.999,0.04,0.08,0.01,0.09
8.008,-0.01,0.03,-0.03,0.04
8.018,-0.06,-0.04,-0.03,0.07
8.029,-0.04,-0.08,-0.04,0.1
8.039,0.01,-0.09,-0.05,0.1
8.049,0.07,-0.1,-0.04,0.13
8.059,0.07,-0.08,-0.01,0.11
8.069,0.06,-0.04,0.06,0.09
8.079,0.07,-0.02,0.05,0.09
8.089,0.08,-0.04,-0.0,0.1
8.099,0.05,-0.08,-0.05,0.1
8.109,-0.04,-0.09,-0.04,0.11
8.119,-0.01,-0.09,-0.02,0.09
8.129,0.05,-0.07,0.01,0.09
8.139,0.08,-0.02,0.04,0.1
8.149,0.11,-0.0,0.07,0.13
8.16,0.13,-0.02,0.08,0.15
8.17,0.1,-0.01,0.06,0.12
8.18,0.05,-0.02,0.09,0.11
8.19,0.1,-0.02,0.11,0.15
8.2,0.13,0.01,0.14,0.19
8.21,0.16,-0.01,0.17,0.23
8.22,0.19,-0.07,0.06,0.21
8.23,0.14,-0.15,-0.02,0.2
8.24,0.08,-0.15,-0.01,0.17
8.25,0.07,-0.1,0.03,0.12
8.26,0.14,-0.04,0.04,0.15
8.27,0.15,0.0,0.01,0.15
8.28,0.12,0.02,0.02,0.13
8.291,0.08,0.01,0.02,0.09
8.301,0.04,0.0,0.04,0.06
8.311,0.06,0.01,0.04,0.07
8.321,0.06,0.02,0.01,0.07
8.331,0.07,-0.0,0.02,0.08
8.341,0.08,-0.01,-0.0,0.08
8.351,0.06,-0.03,-0.05,0.08
8.361,0.03,-0.02,-0.06,0.07
8.371,-0.0,-0.04,0.01,0.04
8.381,0.05,-0.03,0.03,0.07
8.391,0.09,-0.02,-0.04,0.1
8.401,0.05,-0.08,-0.04,0.1
8.411,0.05,-0.1,0.06,0.13
8.421,0.09,-0.08,0.1,0.16
8.432,0.09,-0.1,0.11,0.17
8.441,0.06,-0.12,0.12,0.18
8.452,0.1,-0.11,0.08,0.17
8.462,0.08,-0.14,0.03,0.16
8.472,0.02,-0.12,0.05,0.13
8.482,0.02,-0.07,0.06,0.1
8.492,0.05,-0.06,0.06,0.1
8.502,0.07,-0.04,0.07,0.11
8.512,0.12,-0.02,0.05,0.13
8.522,0.12,-0.05,0.07,0.15
8.532,0.12,-0.04,0.04,0.13
8.542,0.12,-0.01,0.05,0.13
8.552,0.13,-0.02,0.03,0.14
8.562,0.14,-0.03,-0.07,0.16
8.573,0.08,-0.04,-0.1,0.14
8.583,0.01,-0.01,-0.04,0.04
8.593,0.03,0.06,-0.0,0.07
8.603,0.09,0.07,-0.03,0.12
8.613,0.1,0.06,-0.0,0.12
8.623,0.12,0.09,-0.02,0.15
8.633,0.1,0.06,-0.03,0.12
8.643,0.08,0.01,-0.01,0.08
8.653,0.07,0.02,0.01,0.07
8.663,0.05,0.05,0.0,0.07
8.674,0.06,0.04,0.05,0.08
8.683,0.11,-0.0,0.06,0.12
8.693,0.14,-0.05,-0.02,0.15
8.703,0.06,-0.15,-0.01,0.16
8.713,0.02,-0.19,0.05,0.2
8.724,0.05,-0.19,0.03,0.2
8.734,0.03,-0.19,0.04,0.2
8.744,0.07,-0.14,0.11,0.19
8.754,0.11,-0.11,0.18,0.24
8.764,0.12,-0.09,0.22,0.27
8.774,0.1,-0.08,0.19,0.23
8.784,0.05,-0.12,0.14,0.19
8.794,0.02,-0.15,0.1,0.18
8.804,-0.03,-0.15,0.06,0.16
8.814,-0.04,-0.11,0.05,0.12
8.824,0.01,-0.06,0.01,0.06
8.834,0.05,-0.01,0.01,0.05
8.844,0.07,0.02,0.02,0.07
8.855,0.05,-0.01,-0.02,0.05
8.865,0.07,-0.02,-0.03,0.08
8.875,0.08,-0.04,-0.06,0.11
8.885,0.07,-0.05,-0.09,0.13
8.895,0.07,-0.04,-0.09,0.12
8.905,0.07,-0.0,-0.11,0.13
8.915,0.05,0.04,-0.07,0.09
8.925,0.04,0.04,-0.01,0.06
8.935,0.05,0.05,0.02,0.08
8.945,0.03,0.04,0.05,0.07
8.955,0.08,0.01,0.04,0.09
8.965,0.09,-0.01,0.05,0.1
8.975,0.11,-0.03,0.03,0.12
8.986,0.14,-0.05,0.05,0.16
8.996,0.15,-0.04,0.08,0.18
9.006,0.14,-0.04,0.11,0.18
9.016,0.08,-0.07,0.12,0.16
9.026,0.11,-0.09,0.11,0.17
9.036,0.11,-0.1,0.05,0.16
9.046,0.1,-0.11,-0.01,0.15
9.056,0.01,-0.14,-0.02,0.14
9.066,0.02,-0.11,0.03,0.11
9.076,0.07,-0.07,0.04,0.11
9.086,0.08,-0.05,0.08,0.12
9.096,0.11,0.01,0.11,0.16
9.106,0.09,0.02,0.14,0.16
9.117,0.05,-0.02,0.1,0.11
9.126,0.07,-0.03,-0.02,0.08
9.137,0.02,-0.11,-0.09,0.14
9.147,-0.01,-0.06,-0.08,0.1
9.157,0.03,0.04,-0.11,0.12
9.167,0.04,0.06,-0.11,0.13
9.177,0.01,0.1,-0.07,0.12
9.187,0.02,0.13,-0.03,0.13
9.197,0.03,0.12,-0.05,0.13
9.207,0.0,0.07,-0.02,0.07
9.217,0.1,0.0,-0.05,0.11
9.227,0.17,-0.04,-0.18,0.25
9.237,0.03,-0.04,-0.22,0.23
9.247,-0.11,-0.1,-0.04,0.15
9.258,0.04,-0.05,0.02,0.07
9.268,0.15,0.05,0.01,0.15
9.278,0.13,0.02,0.16,0.21
9.288,0.19,-0.03,0.18,0.27
9.298,0.14,-0.08,0.03,0.17
9.308,0.14,-0.16,0.19,0.29
9.318,0.14,-0.17,0.14,0.26
9.328,0.04,-0.18,-0.02,0.19
9.338,-0.02,-0.22,-0.16,0.28
9.348,0.07,-0.18,0.07,0.2
9.358,0.05,-0.12,0.17,0.21
9.368,0.13,-0.04,0.35,0.37
9.378,0.19,0.01,0.29,0.35
9.389,0.31,0.04,0.25,0.4
9.399,0.33,-0.02,0.23,0.4
9.409,0.3,-0.04,0.22,0.37
9.419,0.24,-0.02,0.19,0.31
9.429,0.21,0.05,0.14,0.25
9.439,0.0,0.04,0.0,0.04
9.449,-0.26,0.03,-0.22,0.34
9.459,-0.06,-0.06,-0.29,0.3
9.469,-0.0,-0.16,-0.12,0.2
9.479,-0.01,-0.05,-0.01,0.05
