time,ax,ay,az,atotal
0.0,-0.067,0.083,0.028,0.11
0.01,0.02,0.089,-0.142,0.169
0.02,0.019,0.054,0.096,0.112
0.03,0.063,0.127,-0.128,0.191
0.04,-0.031,-0.036,0.034,0.058
0.051,-0.027,0.154,0.04,0.162
0.061,-0.029,0.011,0.076,0.082
0.071,-0.049,-0.056,0.034,0.081
0.081,-0.149,0.049,0.177,0.237
0.091,0.066,-0.096,0.05,0.126
0.101,0.058,0.094,0.108,0.155
0.111,-0.081,0.054,-0.017,0.099
0.121,-0.014,0.175,0.041,0.18
0.132,-0.032,0.13,0.14,0.194
0.142,-0.029,-0.032,0.014,0.045
0.152,-0.114,0.014,0.043,0.123
0.162,-0.023,0.124,0.097,0.159
0.172,0.052,0.151,-0.024,0.162
0.182,0.17,0.183,-0.124,0.279
0.192,0.041,0.183,0.044,0.193
0.202,0.026,0.08,0.094,0.126
0.212,-0.011,0.118,-0.071,0.138
0.223,-0.016,0.194,0.07,0.207
0.233,0.078,0.067,0.069,0.124
0.243,0.04,0.123,-0.138,0.189
0.253,-0.015,0.068,-0.046,0.083
0.263,-0.038,0.051,-0.009,0.064
0.273,0.015,0.1,0.005,0.101
0.283,-0.007,0.042,-0.035,0.055
0.293,0.026,0.088,-0.04,0.1
0.304,0.013,0.017,0.132,0.134
0.314,0.051,0.085,0.007,0.1
0.324,-0.047,0.137,-0.036,0.15
0.334,0.095,0.055,0.009,0.11
0.344,0.197,0.104,0.049,0.228
0.354,0.103,0.116,0.014,0.155
0.364,0.045,0.142,-0.005,0.149
0.374,0.085,0.096,-0.037,0.134
0.384,-0.027,0.194,-0.039,0.2
0.395,-0.061,-0.06,-0.036,0.093
0.405,0.081,0.344,0.029,0.354
0.415,0.003,0.04,-0.066,0.077
0.425,-0.045,0.143,0.03,0.153
0.435,-0.016,0.036,0.101,0.108
0.445,-0.031,0.163,0.024,0.168
0.455,0.046,0.135,-0.026,0.145
0.465,0.073,0.061,-0.092,0.133
0.475,0.092,0.2,0.108,0.245
0.486,0.093,0.101,-0.085,0.162
0.496,0.086,0.159,0.055,0.189
0.506,0.028,0.042,0.04,0.064
0.516,0.004,0.113,-0.023,0.116
0.526,-0.049,0.277,-0.026,0.282
0.536,0.108,0.194,-0.137,0.261
0.546,0.032,0.142,0.014,0.146
0.556,0.019,0.082,0.033,0.09
0.567,0.115,0.123,-0.087,0.19
0.577,-0.01,0.134,-0.023,0.137
0.587,0.095,0.155,-0.011,0.182
0.597,0.063,0.033,0.027,0.076
0.607,-0.017,0.173,-0.015,0.174
0.617,0.041,0.032,-0.13,0.14
0.627,0.105,0.25,-0.054,0.276
0.637,0.094,0.058,-0.003,0.111
0.647,0.137,0.144,0.04,0.202
0.658,0.068,0.2,-0.063,0.221
0.668,0.25,0.1,0.132,0.3
0.678,-0.007,0.147,-0.155,0.214
0.688,0.024,0.235,-0.063,0.244
0.698,0.045,0.165,-0.03,0.174
0.708,-0.037,0.148,-0.039,0.158
0.718,0.111,-0.015,-0.112,0.159
0.728,0.103,0.045,0.004,0.113
0.739,0.05,0.203,-0.002,0.209
0.749,0.017,0.165,-0.026,0.168
0.759,-0.04,0.177,-0.007,0.181
0.769,0.002,0.17,-0.06,0.18
0.779,0.094,0.222,-0.145,0.281
0.789,0.037,0.097,-0.083,0.133
0.799,0.024,0.128,-0.023,0.132
0.809,0.08,0.035,-0.023,0.09
0.819,0.119,0.015,-0.033,0.125
0.83,0.065,-0.015,0.002,0.067
0.84,0.069,0.046,-0.078,0.114
0.85,0.132,0.24,-0.036,0.276
0.86,0.06,-0.009,0.001,0.061
0.87,0.031,0.091,-0.046,0.106
0.88,0.09,0.011,-0.128,0.157
0.89,0.034,0.066,-0.109,0.132
0.9,0.028,0.127,0.016,0.13
0.911,0.126,0.056,0.054,0.148
0.921,0.032,0.199,0.038,0.205
0.931,-0.11,0.234,-0.029,0.26
0.941,0.07,-0.07,-0.13,0.163
0.951,0.025,0.055,-0.047,0.077
0.961,0.031,0.113,0.062,0.133
0.971,0.075,0.198,-0.005,0.212
0.981,0.038,0.071,-0.064,0.102
0.991,0.061,0.104,-0.006,0.121
1.002,-0.074,0.013,-0.14,0.158
1.012,-0.009,-0.018,-0.1,0.102
1.022,0.131,0.219,-0.128,0.286
1.032,0.045,-0.044,-0.02,0.066
1.042,-0.054,0.288,-0.004,0.293
1.052,-0.019,0.158,-0.065,0.172
1.062,-0.014,0.154,-0.116,0.193
1.072,0.051,0.144,-0.057,0.163
1.082,0.019,0.077,-0.091,0.12
1.093,0.005,0.127,-0.113,0.17
1.103,0.044,0.08,-0.034,0.097
1.113,0.072,0.138,-0.112,0.192
1.123,0.027,0.09,-0.169,0.193
1.133,0.008,0.015,-0.154,0.155
1.143,0.016,0.02,-0.173,0.175
1.153,0.062,0.01,-0.044,0.076
1.163,0.04,0.165,-0.052,0.177
1.174,0.086,0.037,-0.056,0.109
1.184,-0.029,-0.068,-0.022,0.078
1.194,-0.008,0.115,0.019,0.117
1.204,0.085,0.203,-0.106,0.244
1.214,-0.01,0.142,-0.037,0.147
1.224,0.12,0.031,-0.176,0.216
1.234,0.121,-0.049,0.03,0.134
1.244,0.119,0.065,-0.154,0.206
1.254,-0.018,0.062,-0.117,0.134
1.265,0.039,-0.004,-0.11,0.117
1.275,0.004,0.116,-0.175,0.21
1.285,0.088,0.218,-0.067,0.244
1.295,0.135,0.086,-0.055,0.169
1.305,0.084,0.08,-0.083,0.143
1.315,0.031,-0.01,-0.178,0.181
1.325,0.008,0.176,0.068,0.188
1.335,0.068,0.056,-0.033,0.094
1.346,-0.045,0.014,0.112,0.122
1.356,0.06,0.064,-0.129,0.156
1.366,-0.028,0.095,-0.006,0.099
1.376,0.063,0.067,-0.019,0.094
1.386,0.016,0.15,-0.094,0.178
1.396,0.001,0.083,0.025,0.086
1.406,-0.03,0.028,-0.103,0.111
1.416,0.001,0.081,-0.1,0.129
1.426,0.055,0.087,-0.318,0.334
1.437,0.084,-0.059,-0.047,0.112
1.447,0.052,0.135,-0.169,0.222
1.457,0.101,0.017,-0.115,0.154
1.467,0.171,0.018,-0.148,0.227
1.477,-0.002,0.098,-0.102,0.142
1.487,0.004,0.096,-0.046,0.106
1.497,-0.071,-0.022,-0.077,0.106
1.507,0.086,0.097,-0.028,0.133
1.518,0.092,-0.014,0.011,0.094
1.528,-0.039,0.174,-0.104,0.207
1.538,0.049,-0.039,-0.112,0.128
1.548,0.084,0.044,-0.011,0.096
1.558,0.024,-0.039,-0.006,0.046
1.568,0.06,0.199,-0.027,0.21
1.578,0.019,-0.08,-0.146,0.167
1.588,-0.066,0.059,-0.05,0.102
1.598,0.069,-0.043,-0.072,0.109
1.609,0.085,-0.015,-0.006,0.086
1.619,0.049,0.048,-0.12,0.138
1.629,-0.054,0.108,-0.196,0.23
1.639,-0.042,0.138,-0.031,0.148
1.649,-0.066,-0.117,-0.259,0.292
1.659,0.047,0.026,-0.131,0.142
1.669,0.076,0.119,-0.152,0.207
1.679,0.024,-0.134,-0.152,0.204
1.689,0.054,0.024,-0.132,0.145
1.7,-0.055,-0.004,0.005,0.056
1.71,0.005,0.028,-0.023,0.036
1.72,-0.087,-0.069,-0.098,0.148
1.73,-0.052,-0.124,-0.001,0.135
1.74,0.046,-0.164,-0.154,0.23
1.75,-0.022,0.065,-0.164,0.178
1.76,0.064,0.074,-0.019,0.099
1.77,0.023,0.008,-0.039,0.046
1.781,0.153,-0.061,-0.112,0.2
1.791,-0.006,-0.15,-0.159,0.219
1.801,-0.097,0.023,0.023,0.102
1.811,-0.015,-0.112,-0.2,0.23
1.821,-0.072,-0.083,-0.121,0.163
1.831,0.043,-0.075,-0.063,0.107
1.841,-0.014,-0.046,0.047,0.067
1.851,-0.025,-0.092,-0.052,0.109
1.861,-0.025,-0.031,-0.045,0.06
1.872,0.026,-0.085,-0.118,0.148
1.882,-0.047,0.019,-0.038,0.063
1.892,0.026,0.044,-0.07,0.087
1.902,0.041,-0.032,-0.189,0.196
1.912,-0.043,-0.005,-0.022,0.048
1.922,-0.079,0.125,-0.009,0.148
1.932,-0.055,-0.14,-0.021,0.152
1.942,0.018,-0.146,-0.074,0.165
1.953,-0.02,0.006,-0.143,0.145
1.963,0.011,0.104,-0.237,0.26
1.973,0.079,-0.074,-0.064,0.126
1.983,-0.014,0.083,0.001,0.085
1.993,-0.077,-0.049,-0.005,0.092
2.003,0.034,-0.113,-0.017,0.119
2.013,-0.027,-0.139,-0.079,0.162
2.023,0.021,-0.011,0.002,0.024
2.033,0.032,-0.136,-0.009,0.14
2.044,-0.09,-0.058,-0.102,0.148
2.054,0.05,0.06,-0.025,0.082
2.064,0.02,-0.092,-0.109,0.145
2.074,-0.071,0.036,-0.034,0.086
2.084,-0.017,-0.168,-0.162,0.234
2.094,-0.021,-0.115,-0.156,0.195
2.104,-0.035,-0.187,0.004,0.19
2.114,0.015,-0.07,-0.004,0.071
2.125,0.048,-0.014,-0.025,0.056
2.135,-0.038,-0.072,-0.062,0.103
2.145,0.041,0.018,-0.235,0.24
2.155,0.02,-0.141,-0.073,0.16
2.165,-0.026,-0.065,-0.035,0.078
2.175,-0.03,-0.126,-0.104,0.166
2.185,-0.111,-0.056,-0.116,0.17
2.195,-0.132,-0.046,0.036,0.144
2.205,-0.033,-0.041,-0.069,0.087
2.216,-0.094,-0.175,-0.032,0.201
2.226,-0.046,-0.162,-0.009,0.168
2.236,-0.076,-0.148,-0.133,0.213
2.246,-0.152,-0.112,-0.049,0.195
2.256,-0.023,-0.087,0.031,0.095
2.266,-0.07,-0.039,0.066,0.104
2.276,-0.041,-0.164,-0.057,0.179
2.286,-0.1,-0.226,-0.076,0.258
2.296,-0.066,0.074,-0.04,0.107
2.307,0.047,-0.19,-0.041,0.2
2.317,-0.039,-0.034,0.04,0.065
2.327,-0.014,-0.099,-0.126,0.161
2.337,-0.124,-0.083,-0.076,0.167
2.347,0.095,-0.104,-0.133,0.194
2.357,0.062,-0.136,-0.125,0.195
2.367,0.033,-0.069,-0.027,0.081
2.377,0.001,-0.142,0.004,0.142
2.388,-0.048,-0.014,-0.098,0.11
2.398,-0.023,-0.063,0.003,0.067
2.408,0.014,-0.061,0.027,0.068
2.418,-0.087,-0.15,0.086,0.194
2.428,-0.076,-0.13,-0.044,0.157
2.438,-0.15,-0.206,-0.093,0.271
2.448,-0.096,-0.14,-0.118,0.207
2.458,0.05,-0.196,-0.124,0.237
2.468,-0.07,-0.008,0.042,0.082
2.479,-0.069,-0.11,-0.151,0.199
2.489,-0.031,-0.101,0.041,0.113
2.499,-0.147,-0.133,-0.104,0.224
2.509,0.007,-0.1,-0.09,0.135
2.519,0.026,0.081,-0.052,0.1
2.529,-0.027,-0.141,-0.09,0.169
2.539,0.049,-0.169,0.025,0.178
2.549,-0.129,-0.075,0.088,0.174
2.56,0.061,-0.32,-0.084,0.336
2.57,-0.093,-0.113,-0.067,0.161
2.58,-0.126,-0.148,-0.048,0.2
2.59,-0.064,-0.198,0.003,0.208
2.6,0.063,-0.078,-0.045,0.11
2.61,-0.05,-0.115,0.064,0.141
2.62,-0.105,-0.264,0.048,0.288
2.63,-0.126,-0.171,-0.115,0.242
2.64,-0.055,-0.351,0.006,0.355
2.651,-0.168,-0.096,0.077,0.208
2.661,-0.126,-0.097,-0.063,0.171
2.671,0.045,-0.183,-0.048,0.195
2.681,0.032,-0.077,-0.064,0.105
2.691,-0.054,-0.223,-0.061,0.237
2.701,-0.074,-0.197,-0.142,0.254
2.711,-0.043,-0.086,-0.117,0.152
2.721,0.095,-0.175,-0.018,0.2
2.732,-0.021,-0.125,0.084,0.152
2.742,0.01,-0.165,-0.064,0.177
2.752,-0.057,-0.152,-0.065,0.175
2.762,-0.04,-0.148,0.1,0.183
2.772,-0.005,-0.175,-0.096,0.2
2.782,-0.036,-0.094,-0.133,0.167
2.792,-0.156,-0.168,-0.074,0.242
2.802,0.035,-0.117,-0.062,0.136
2.812,-0.078,-0.176,-0.137,0.236
2.823,0.086,-0.24,-0.022,0.256
2.833,0.001,-0.044,0.054,0.07
2.843,-0.036,-0.076,-0.101,0.132
2.853,-0.013,0.067,-0.004,0.069
2.863,-0.045,-0.199,0.019,0.205
2.873,-0.067,-0.131,-0.014,0.148
2.883,-0.025,-0.124,0.006,0.127
2.893,0.016,-0.034,0.008,0.039
2.903,-0.064,-0.153,-0.062,0.177
2.914,-0.073,-0.206,0.101,0.24
2.924,-0.056,-0.015,0.084,0.102
2.934,0.023,-0.136,0.081,0.16
2.944,0.054,-0.04,0.07,0.097
2.954,-0.011,-0.048,-0.11,0.121
2.964,0.003,-0.111,0.066,0.129
2.974,-0.069,-0.121,0.048,0.148
2.984,0.022,-0.138,-0.105,0.175
2.995,0.003,-0.107,-0.011,0.108
3.005,-0.072,-0.036,0.024,0.084
3.015,-0.136,-0.168,0.123,0.248
3.025,-0.101,-0.094,0.058,0.15
3.035,-0.067,-0.191,-0.052,0.209
3.045,0.044,-0.18,0.128,0.225
3.055,0.068,-0.102,0.013,0.124
3.065,-0.051,-0.256,-0.007,0.261
3.075,-0.048,0.067,-0.011,0.083
3.086,-0.007,-0.192,-0.101,0.217
3.096,-0.021,-0.099,0.006,0.101
3.106,0.035,-0.001,0.05,0.061
3.116,-0.051,-0.162,-0.011,0.17
3.126,0.038,-0.276,0.047,0.283
3.136,-0.033,-0.126,-0.042,0.137
3.146,0.034,-0.159,0.009,0.163
3.156,-0.033,-0.27,0.042,0.275
3.167,-0.052,-0.064,0.034,0.09
3.177,0.1,-0.069,-0.09,0.151
3.187,0.05,0.007,-0.008,0.051
3.197,-0.12,-0.172,0.141,0.253
3.207,-0.039,-0.209,-0.009,0.213
3.217,0.061,-0.113,0.027,0.131
3.227,-0.082,-0.086,0.021,0.12
3.237,0.037,-0.003,0.138,0.143
3.247,0.032,0.037,0.119,0.129
3.258,-0.049,0.023,0.086,0.102
3.268,-0.007,-0.051,-0.037,0.063
3.278,-0.131,-0.007,0.057,0.143
3.288,0.102,-0.121,0.072,0.174
3.298,-0.022,-0.055,-0.015,0.061
3.308,0.046,-0.162,-0.027,0.17
3.318,0.035,-0.06,0.155,0.17
3.328,0.081,-0.056,0.015,0.1
3.339,-0.026,0.076,0.15,0.17
3.349,0.014,-0.078,0.108,0.134
3.359,0.036,-0.051,0.067,0.092
3.369,0.056,-0.038,0.071,0.098
3.379,0.074,-0.091,-0.057,0.131
3.389,-0.023,-0.117,0.056,0.132
3.399,-0.034,0.052,0.142,0.155
3.409,0.089,-0.128,0.091,0.181
3.419,-0.114,-0.154,0.055,0.2
3.43,0.103,0.008,0.165,0.195
3.44,-0.008,0.048,0.033,0.059
3.45,0.011,-0.079,0.003,0.08
3.46,-0.029,-0.076,0.058,0.1
3.47,0.01,-0.017,0.102,0.104
3.48,0.09,-0.094,-0.071,0.148
3.49,0.061,-0.098,0.07,0.135
3.5,0.045,0.037,0.107,0.122
3.51,0.022,0.017,0.033,0.043
3.521,-0.069,0.075,0.13,0.165
3.531,-0.032,-0.128,0.098,0.165
3.541,-0.002,-0.067,0.204,0.214
3.551,0.047,-0.002,0.002,0.047
3.561,0.025,-0.097,0.113,0.151
3.571,0.081,0.031,-0.015,0.088
3.581,0.051,0.079,-0.056,0.11
3.591,0.027,-0.064,-0.085,0.11
3.602,0.161,-0.012,0.096,0.188
3.612,0.049,0.103,0.072,0.135
3.622,-0.0,0.133,0.026,0.135
3.632,0.138,0.05,-0.064,0.16
3.642,0.1,0.04,0.013,0.108
3.652,0.137,-0.074,0.062,0.168
3.662,0.022,0.025,0.118,0.122
3.672,0.088,0.043,0.062,0.116
3.682,-0.057,-0.017,0.081,0.1
3.693,0.078,-0.046,0.038,0.098
3.703,0.023,-0.099,0.187,0.213
3.713,-0.049,-0.133,-0.006,0.142
3.723,0.095,-0.148,0.017,0.177
3.733,-0.074,0.056,0.032,0.098
3.743,-0.08,0.023,0.105,0.134
3.753,0.057,-0.025,-0.005,0.063
3.763,0.071,-0.011,0.078,0.105
3.774,0.095,0.034,0.08,0.129
3.784,0.082,0.006,0.02,0.085
3.794,0.127,-0.086,0.093,0.179
3.804,0.081,0.096,-0.0,0.125
3.814,0.031,0.049,-0.008,0.059
3.824,0.036,0.048,0.078,0.098
3.834,0.024,0.095,-0.045,0.108
3.844,0.059,-0.035,-0.078,0.104
3.854,-0.024,0.129,0.11,0.171
3.865,0.063,0.023,0.146,0.161
3.875,0.037,0.107,0.041,0.12
3.885,0.06,0.096,0.027,0.116
3.895,0.06,-0.044,0.144,0.162
3.905,-0.103,0.081,-0.006,0.132
3.915,-0.01,0.069,-0.021,0.073
3.925,0.038,0.047,0.125,0.139
3.935,0.042,0.039,0.076,0.095
3.946,0.061,0.041,0.15,0.168
3.956,0.064,0.115,-0.074,0.151
3.966,0.137,0.098,-0.022,0.17
3.976,0.066,0.056,0.078,0.116
3.986,0.028,-0.064,0.106,0.127
3.996,-0.049,0.096,0.137,0.174
4.006,-0.034,0.116,0.09,0.151
4.016,0.08,0.244,0.089,0.272
4.026,0.112,0.148,0.051,0.192
4.037,0.141,-0.088,0.19,0.252
4.047,-0.001,0.071,0.001,0.071
4.057,0.031,0.212,0.104,0.238
4.067,0.064,0.118,0.01,0.135
4.077,0.172,0.096,0.116,0.229
4.087,0.056,0.143,0.007,0.154
4.097,0.143,0.023,0.131,0.195
4.107,0.06,0.113,0.087,0.155
4.117,0.119,0.056,0.202,0.241
4.128,0.111,0.076,0.06,0.148
4.138,0.06,0.145,0.109,0.191
4.148,-0.011,0.006,0.025,0.028
4.158,0.034,0.185,0.06,0.197
4.168,0.139,0.049,0.087,0.172
4.178,0.103,0.105,-0.027,0.149
4.188,0.024,-0.026,-0.019,0.04
4.198,0.029,0.145,0.122,0.191
4.209,-0.054,0.204,0.07,0.222
4.219,0.136,0.048,0.038,0.15
4.229,0.103,0.002,0.028,0.107
4.239,0.041,0.114,0.031,0.125
4.249,0.061,0.21,0.088,0.235
4.259,-0.081,-0.021,0.111,0.139
4.269,0.02,0.007,-0.067,0.07
4.279,0.129,0.06,0.179,0.228
4.289,0.108,0.032,0.173,0.207
4.3,0.068,0.034,-0.084,0.113
4.31,0.047,-0.067,0.155,0.176
4.32,0.096,0.148,0.153,0.234
4.33,0.031,0.129,0.079,0.155
4.34,-0.053,-0.033,-0.012,0.063
4.35,0.047,0.221,0.15,0.271
4.36,0.071,0.24,0.062,0.257
4.37,0.114,0.046,0.117,0.169
4.381,-0.04,0.2,0.233,0.31
4.391,0.038,0.062,0.095,0.12
4.401,0.041,0.123,0.013,0.13
4.411,-0.021,0.042,0.054,0.072
4.421,0.074,0.287,0.022,0.297
4.431,0.089,0.087,0.107,0.164
4.441,0.026,0.122,0.02,0.126
4.451,0.166,0.057,0.043,0.181
4.461,0.023,0.262,-0.014,0.263
4.472,0.015,0.264,0.066,0.273
4.482,0.013,0.245,0.088,0.26
4.492,-0.008,0.191,-0.113,0.222
4.502,0.007,0.065,0.093,0.114
4.512,-0.046,0.182,0.071,0.201
4.522,0.028,0.116,0.02,0.121
4.532,0.042,0.222,0.215,0.312
4.542,-0.099,0.206,0.14,0.268
4.553,0.031,0.066,-0.004,0.073
4.563,0.039,0.194,0.131,0.237
4.573,0.067,0.173,0.159,0.244
4.583,0.108,-0.103,0.08,0.169
4.593,0.086,0.183,0.096,0.224
4.603,-0.003,0.085,0.094,0.126
4.613,-0.011,0.048,-0.076,0.091
4.623,0.067,0.052,0.056,0.102
4.633,-0.001,0.109,0.052,0.121
4.644,-0.043,0.158,0.168,0.235
4.654,0.173,0.011,0.091,0.196
4.664,0.011,0.135,0.046,0.143
4.674,-0.009,0.166,0.06,0.177
4.684,-0.103,0.269,0.138,0.319
4.694,0.078,0.034,0.052,0.1
4.704,-0.033,0.092,0.016,0.099
4.714,0.027,0.141,0.045,0.15
4.724,0.083,0.212,0.129,0.261
4.735,-0.034,0.095,0.098,0.141
4.745,0.028,0.215,0.065,0.227
4.755,0.114,-0.036,0.075,0.141
4.765,-0.126,0.019,0.022,0.129
4.775,-0.028,0.147,0.047,0.156
4.785,-0.035,0.006,0.013,0.037
4.795,0.008,0.024,0.038,0.046
4.805,0.015,0.076,0.152,0.171
4.816,-0.047,0.179,-0.018,0.186
4.826,-0.023,-0.035,0.009,0.043
4.836,-0.031,0.13,-0.032,0.138
4.846,-0.007,0.199,-0.048,0.204
4.856,0.026,0.1,0.042,0.111
4.866,0.067,0.085,0.011,0.109
4.876,0.075,0.147,0.176,0.241
4.886,0.05,0.098,0.033,0.115
4.896,-0.043,0.224,0.142,0.269
4.907,0.009,0.024,0.119,0.121
4.917,0.15,0.108,0.035,0.188
4.927,0.068,0.128,0.197,0.244
4.937,-0.021,0.08,0.067,0.107
4.947,0.1,-0.12,0.154,0.219
4.957,-0.019,0.096,0.145,0.175
4.967,-0.037,0.18,0.075,0.199
4.977,0.086,0.17,0.098,0.214
4.988,-0.077,0.135,0.088,0.179
4.998,-0.115,0.018,-0.037,0.122
5.008,0.056,0.136,0.047,0.154
5.018,-0.0,0.058,0.117,0.13
5.028,0.005,0.131,0.148,0.197
5.038,-0.025,0.111,-0.01,0.115
5.048,-0.019,0.023,0.076,0.082
5.058,-0.033,0.028,0.049,0.065
5.068,-0.044,0.127,0.029,0.137
5.079,-0.03,0.08,0.061,0.105
5.089,-0.033,0.029,0.051,0.067
5.099,-0.059,0.021,0.072,0.096
5.109,-0.043,0.07,0.135,0.157
5.119,-0.161,0.218,0.088,0.285
5.129,0.029,0.049,0.054,0.078
5.139,0.01,0.089,0.161,0.185
5.149,-0.019,0.097,0.108,0.146
5.16,-0.001,-0.003,0.022,0.023
5.17,0.001,-0.055,-0.057,0.079
5.18,-0.06,0.003,-0.042,0.073
5.19,-0.049,0.104,0.091,0.147
5.2,0.013,0.089,-0.019,0.092
5.21,-0.007,0.137,-0.046,0.145
5.22,0.102,0.087,-0.03,0.138
5.23,0.076,0.069,-0.026,0.106
5.24,0.034,0.028,0.081,0.092
5.251,-0.068,0.146,0.009,0.161
5.261,-0.057,0.0,-0.077,0.096
5.271,-0.085,-0.017,0.02,0.089
5.281,-0.008,0.116,0.033,0.121
5.291,-0.191,-0.038,-0.017,0.195
5.301,-0.054,0.261,0.096,0.283
5.311,-0.046,0.072,-0.015,0.087
5.321,-0.12,0.092,0.091,0.176
5.331,0.019,-0.002,0.054,0.057
5.342,-0.098,0.036,0.076,0.129
5.352,-0.015,0.025,-0.067,0.073
5.362,0.136,0.014,0.016,0.137
5.372,-0.129,0.107,0.005,0.167
5.382,-0.042,0.018,-0.092,0.103
5.392,-0.058,0.134,0.084,0.168
5.402,-0.071,0.264,-0.052,0.278
5.412,0.011,0.026,-0.038,0.047
5.423,0.031,0.06,-0.068,0.095
5.433,0.01,0.076,0.051,0.092
5.443,-0.08,0.189,-0.106,0.231
5.453,0.108,0.036,0.043,0.122
5.463,-0.145,-0.026,0.072,0.164
5.473,-0.101,-0.063,0.036,0.124
5.483,-0.029,0.032,0.047,0.064
5.493,-0.035,-0.001,0.049,0.06
5.503,-0.011,0.194,-0.071,0.207
5.514,0.054,0.173,0.094,0.204
5.524,-0.049,-0.053,-0.039,0.082
5.534,-0.035,-0.029,-0.013,0.048
5.544,-0.078,0.032,-0.032,0.091
5.554,-0.008,0.136,0.024,0.138
5.564,-0.063,0.027,-0.049,0.084
5.574,-0.063,-0.032,-0.007,0.071
5.584,-0.012,0.014,-0.1,0.101
5.595,0.017,-0.034,0.067,0.077
5.605,-0.178,0.063,0.032,0.191
5.615,-0.024,-0.044,-0.036,0.062
5.625,-0.062,-0.03,-0.05,0.085
5.635,0.01,0.102,0.027,0.106
5.645,-0.062,-0.055,-0.069,0.107
5.655,0.031,-0.111,-0.011,0.115
5.665,-0.088,0.011,0.06,0.107
5.675,-0.182,-0.028,-0.079,0.2
5.686,0.015,0.04,0.003,0.043
5.696,-0.099,0.023,-0.002,0.102
5.706,-0.143,-0.007,-0.032,0.147
5.716,-0.048,-0.011,-0.061,0.078
5.726,-0.063,-0.067,0.058,0.109
5.736,0.0,-0.004,-0.07,0.07
5.746,0.004,0.058,-0.156,0.166
5.756,-0.044,-0.092,0.015,0.103
5.767,-0.103,-0.016,-0.115,0.155
5.777,-0.032,0.065,0.017,0.075
5.787,-0.04,0.021,0.061,0.076
5.797,-0.016,0.083,0.011,0.085
5.807,-0.102,-0.069,0.041,0.13
5.817,-0.074,-0.172,0.106,0.215
5.827,-0.019,-0.011,0.032,0.039
5.837,0.025,-0.0,-0.014,0.028
5.847,0.008,0.079,0.076,0.11
5.858,-0.045,0.062,0.084,0.114
5.868,-0.079,0.008,0.084,0.116
5.878,-0.026,0.025,-0.075,0.083
5.888,-0.115,-0.054,-0.136,0.186
5.898,-0.099,-0.138,-0.081,0.188
5.908,0.041,-0.032,0.006,0.053
5.918,-0.025,0.035,-0.033,0.054
5.928,-0.07,0.007,-0.059,0.092
5.938,0.001,0.02,-0.007,0.021
5.949,0.028,-0.083,-0.15,0.173
5.959,-0.075,-0.072,-0.038,0.111
5.969,-0.074,-0.014,0.03,0.081
5.979,-0.081,-0.098,-0.011,0.128
5.989,0.01,-0.097,-0.001,0.097
5.999,0.011,-0.034,0.061,0.071
6.009,0.036,0.002,-0.056,0.067
6.019,0.014,-0.077,-0.098,0.125
6.03,-0.145,-0.155,0.03,0.214
6.04,-0.029,-0.123,0.028,0.129
6.05,-0.109,-0.049,-0.015,0.121
6.06,-0.076,-0.052,-0.066,0.114
6.07,-0.035,-0.049,-0.056,0.082
6.08,0.005,-0.029,-0.146,0.149
6.09,-0.098,-0.071,0.021,0.123
6.1,-0.183,-0.052,0.017,0.191
6.11,-0.032,-0.078,-0.151,0.173
6.121,0.116,0.016,0.001,0.117
6.131,-0.055,0.037,-0.032,0.073
6.141,-0.039,-0.174,-0.132,0.222
6.151,0.066,-0.101,-0.146,0.189
6.161,-0.005,-0.079,-0.036,0.087
6.171,-0.027,-0.105,-0.091,0.141
6.181,-0.013,0.059,0.064,0.088
6.191,-0.024,-0.068,0.003,0.072
6.202,-0.107,-0.152,-0.031,0.188
6.212,-0.118,-0.041,-0.029,0.128
6.222,0.076,-0.068,0.027,0.106
6.232,-0.026,-0.067,-0.007,0.072
6.242,-0.03,0.052,-0.032,0.068
6.252,-0.041,-0.066,-0.136,0.156
6.262,0.012,-0.119,0.146,0.189
6.272,0.118,-0.252,-0.146,0.315
6.282,-0.002,-0.11,-0.091,0.143
6.293,-0.068,0.006,-0.185,0.197
6.303,-0.04,-0.107,-0.032,0.118
6.313,0.033,-0.28,-0.06,0.288
6.323,-0.065,-0.141,-0.017,0.157
6.333,0.022,-0.023,-0.193,0.196
6.343,-0.168,-0.06,0.006,0.178
6.353,-0.042,-0.172,-0.129,0.219
6.363,0.011,-0.151,-0.083,0.172
6.374,0.05,-0.139,-0.008,0.148
6.384,-0.075,-0.16,-0.055,0.185
6.394,-0.115,-0.27,-0.051,0.298
6.404,-0.039,-0.048,-0.018,0.065
6.414,-0.09,-0.009,-0.045,0.101
6.424,-0.031,-0.232,-0.099,0.254
6.434,-0.022,-0.012,-0.087,0.09
6.444,-0.099,-0.12,-0.061,0.167
6.454,0.029,-0.014,-0.139,0.142
6.465,-0.028,-0.11,-0.007,0.114
6.475,0.047,-0.103,-0.056,0.126
6.485,-0.128,-0.085,-0.072,0.169
6.495,-0.077,-0.178,0.006,0.194
6.505,0.016,-0.02,-0.086,0.09
6.515,-0.062,-0.206,-0.091,0.233
6.525,-0.023,-0.149,-0.112,0.187
6.535,-0.012,-0.075,-0.054,0.093
6.545,-0.002,-0.158,-0.057,0.168
6.556,-0.051,-0.055,-0.125,0.146
6.566,-0.0,-0.008,-0.091,0.092
6.576,-0.055,-0.037,-0.125,0.142
6.586,0.033,-0.274,-0.128,0.304
6.596,-0.014,-0.109,-0.2,0.228
6.606,0.004,-0.037,-0.096,0.102
6.616,0.149,-0.225,-0.199,0.335
6.626,-0.07,-0.062,-0.112,0.146
6.637,0.08,-0.066,-0.123,0.161
6.647,-0.161,-0.217,-0.006,0.27
6.657,-0.126,-0.053,-0.151,0.203
6.667,-0.074,-0.098,-0.133,0.181
6.677,-0.07,-0.068,-0.107,0.144
6.687,0.014,-0.197,-0.121,0.232
6.697,0.02,-0.108,0.016,0.111
6.707,-0.011,-0.256,-0.16,0.302
6.717,-0.004,-0.302,-0.107,0.32
6.728,0.037,-0.108,-0.057,0.128
6.738,0.057,-0.031,-0.018,0.067
6.748,-0.072,-0.099,-0.106,0.162
6.758,-0.013,-0.124,-0.214,0.248
6.768,0.005,-0.134,-0.09,0.162
6.778,0.04,-0.194,0.015,0.199
6.788,-0.035,-0.136,-0.06,0.153
6.798,0.007,-0.084,-0.063,0.105
6.809,0.015,-0.152,-0.154,0.217
6.819,-0.028,-0.057,-0.161,0.173
6.829,-0.029,-0.101,-0.078,0.131
6.839,0.022,-0.091,-0.179,0.202
6.849,0.009,-0.045,-0.024,0.052
6.859,0.048,-0.158,-0.138,0.215
6.869,-0.045,-0.062,-0.08,0.111
6.879,-0.002,-0.145,-0.21,0.255
6.889,0.007,-0.087,-0.105,0.137
6.9,0.07,-0.165,-0.161,0.24
6.91,-0.034,-0.185,-0.24,0.305
6.92,0.037,-0.104,-0.039,0.117
6.93,0.039,-0.262,0.038,0.267
6.94,0.123,-0.134,0.003,0.182
6.95,-0.035,-0.238,-0.028,0.242
6.96,-0.013,-0.046,-0.105,0.115
6.97,-0.029,-0.024,-0.019,0.042
6.981,-0.072,-0.176,0.01,0.191
6.991,0.135,-0.072,-0.065,0.166
7.001,-0.045,-0.033,-0.157,0.167
7.011,-0.019,-0.032,-0.109,0.115
7.021,0.11,-0.086,0.045,0.147
7.031,-0.073,-0.044,-0.079,0.116
7.041,0.078,-0.153,-0.306,0.351
7.051,-0.052,-0.094,-0.175,0.205
7.061,0.109,-0.137,-0.102,0.202
7.072,-0.096,-0.157,0.001,0.184
7.082,-0.07,-0.094,-0.09,0.148
7.092,0.003,-0.068,0.003,0.068
7.102,0.095,-0.002,-0.107,0.143
7.112,0.035,-0.072,-0.207,0.222
7.122,0.018,-0.041,-0.104,0.113
7.132,0.119,-0.039,-0.045,0.133
7.142,0.168,0.125,-0.05,0.216
7.152,0.08,-0.233,-0.155,0.292
7.163,0.003,-0.142,-0.092,0.169
7.173,0.016,0.032,0.121,0.126
7.183,-0.036,-0.113,-0.152,0.193
7.193,0.048,-0.012,-0.019,0.053
7.203,-0.055,-0.064,-0.212,0.228
7.213,0.076,0.088,-0.004,0.116
7.223,0.164,-0.168,-0.126,0.266
7.233,0.087,0.02,-0.035,0.096
7.244,0.016,0.064,-0.153,0.166
7.254,0.076,-0.156,-0.041,0.178
7.264,0.142,-0.011,-0.125,0.19
7.274,0.14,-0.149,-0.11,0.232
7.284,-0.014,-0.068,-0.029,0.075
7.294,0.077,-0.089,-0.089,0.148
7.304,0.037,-0.259,-0.032,0.264
7.314,0.095,-0.032,-0.071,0.123
7.324,0.07,-0.052,-0.052,0.102
7.335,-0.095,0.056,-0.025,0.113
7.345,0.027,-0.012,-0.08,0.085
7.355,0.06,0.124,-0.124,0.186
7.365,-0.038,-0.049,-0.091,0.11
7.375,0.083,-0.064,0.03,0.11
7.385,-0.043,-0.069,-0.044,0.092
7.395,0.001,-0.087,-0.111,0.141
7.405,0.13,-0.227,-0.023,0.262
7.416,-0.004,-0.066,-0.017,0.069
7.426,0.084,-0.212,-0.013,0.229
7.436,-0.056,-0.009,-0.117,0.13
7.446,0.175,-0.143,-0.095,0.245
7.456,0.032,-0.113,-0.094,0.151
7.466,0.056,-0.093,-0.071,0.13
7.476,0.061,-0.054,-0.007,0.082
7.486,0.086,-0.036,-0.024,0.096
7.496,-0.041,0.052,-0.017,0.069
7.507,0.05,-0.079,0.052,0.107
7.517,0.01,0.008,0.006,0.014
7.527,-0.051,0.19,-0.051,0.203
7.537,0.109,0.003,-0.123,0.164
7.547,0.029,-0.04,-0.089,0.102
7.557,0.064,-0.086,-0.057,0.121
7.567,0.06,-0.037,0.021,0.074
7.577,0.029,-0.09,-0.038,0.103
7.588,0.168,0.004,-0.082,0.187
7.598,0.046,-0.008,-0.086,0.098
7.608,-0.045,-0.187,-0.039,0.196
7.618,0.025,-0.013,0.029,0.041
7.628,0.079,0.076,0.079,0.135
7.638,0.08,-0.04,-0.045,0.101
7.648,-0.017,-0.059,-0.033,0.069
7.658,0.104,-0.115,-0.114,0.192
7.668,-0.058,-0.151,0.108,0.194
7.679,0.116,0.066,-0.125,0.183
7.689,-0.032,-0.013,0.056,0.066
7.699,0.033,0.065,-0.051,0.089
7.709,0.11,0.128,-0.066,0.181
7.719,0.053,0.081,-0.101,0.14
7.729,0.094,-0.034,0.146,0.178
7.739,0.082,0.022,-0.006,0.085
7.749,0.122,-0.036,-0.019,0.128
7.759,0.108,-0.042,0.043,0.123
7.77,0.016,0.044,-0.064,0.079
7.78,0.081,-0.048,-0.017,0.096
7.79,-0.049,-0.156,-0.012,0.164
7.8,0.039,-0.049,-0.051,0.081
7.81,0.091,-0.001,0.07,0.114
7.82,0.049,0.148,-0.029,0.158
7.83,0.067,-0.012,-0.121,0.139
7.84,0.027,0.071,-0.033,0.082
7.851,0.107,0.018,0.007,0.109
7.861,0.034,0.131,-0.072,0.154
7.871,0.01,0.128,-0.065,0.144
7.881,0.091,0.131,-0.046,0.166
7.891,-0.047,-0.1,0.079,0.136
7.901,0.066,0.057,-0.039,0.096
7.911,-0.027,0.103,0.096,0.143
7.921,0.112,0.075,-0.046,0.142
7.931,0.019,0.097,0.02,0.101
7.942,0.042,0.052,-0.033,0.074
7.952,0.058,-0.01,0.053,0.079
7.962,-0.084,-0.085,-0.078,0.142
7.972,-0.008,0.001,0.054,0.054
7.982,0.093,0.269,0.011,0.285
7.992,0.082,0.017,-0.041,0.093
8.002,0.046,-0.099,-0.007,0.109
8.012,-0.053,0.118,0.113,0.172
8.023,0.063,0.13,0.017,0.145
8.033,0.07,0.166,-0.041,0.185
8.043,0.029,0.102,-0.075,0.13
8.053,0.099,0.134,0.045,0.172
8.063,-0.017,0.215,0.025,0.217
8.073,-0.007,0.01,0.061,0.062
8.083,-0.126,-0.005,-0.089,0.155
8.093,0.077,-0.015,-0.068,0.104
8.103,0.04,0.053,0.095,0.116
8.114,-0.081,0.19,0.039,0.21
8.124,-0.086,0.119,0.054,0.157
8.134,-0.034,0.117,-0.049,0.132
8.144,0.065,-0.066,-0.05,0.105
8.154,-0.001,0.026,0.089,0.093
8.164,-0.033,-0.064,0.094,0.118
8.174,-0.046,0.178,-0.054,0.191
8.184,-0.049,0.212,-0.067,0.228
8.195,-0.103,0.149,0.016,0.182
8.205,-0.06,0.009,-0.031,0.069
8.215,-0.053,0.208,-0.032,0.217
8.225,0.051,0.07,-0.061,0.106
8.235,-0.001,-0.006,-0.005,0.008
8.245,-0.041,0.016,-0.052,0.068
8.255,0.146,0.06,-0.047,0.165
8.265,-0.033,0.099,0.051,0.117
8.275,0.075,0.083,0.028,0.116
8.286,0.102,-0.016,0.066,0.122
8.296,-0.091,0.196,-0.082,0.231
8.306,0.007,0.088,0.035,0.095
8.316,-0.029,0.044,0.18,0.188
8.326,-0.035,0.191,0.01,0.194
8.336,0.033,0.008,0.095,0.101
8.346,-0.039,-0.027,0.095,0.106
8.356,-0.032,0.206,0.099,0.231
8.366,-0.013,0.257,0.051,0.262
8.377,-0.026,0.07,0.08,0.109
8.387,-0.075,0.104,0.09,0.157
8.397,0.042,0.016,0.087,0.098
8.407,0.056,0.109,-0.035,0.128
8.417,0.013,0.072,-0.076,0.105
8.427,-0.031,0.102,-0.064,0.125
8.437,-0.052,0.144,0.027,0.155
8.447,-0.053,0.024,0.088,0.105
8.458,0.13,0.084,-0.03,0.157
8.468,0.044,-0.031,0.113,0.125
8.478,-0.064,0.085,0.014,0.108
8.488,-0.004,0.107,0.015,0.108
8.498,-0.037,0.133,-0.008,0.139
8.508,0.019,0.135,-0.081,0.158
8.518,0.016,0.188,0.068,0.201
8.528,0.047,-0.007,0.173,0.179
8.538,-0.07,-0.002,0.049,0.085
8.549,-0.013,0.16,-0.075,0.177
8.559,-0.126,-0.045,0.11,0.173
8.569,-0.097,0.133,-0.058,0.174
8.579,0.031,0.024,-0.028,0.048
8.589,-0.08,0.245,0.041,0.261
8.599,-0.074,0.139,0.067,0.171
8.609,-0.025,0.102,-0.012,0.105
8.619,0.016,0.218,0.04,0.222
8.63,-0.09,0.035,0.11,0.146
8.64,-0.236,0.05,0.12,0.27
8.65,-0.08,0.019,0.149,0.17
8.66,0.043,0.051,0.196,0.207
8.67,-0.009,0.125,0.119,0.173
8.68,0.049,0.16,0.048,0.174
8.69,-0.099,0.197,0.124,0.253
8.7,-0.13,-0.026,0.097,0.165
8.71,-0.005,0.106,0.101,0.146
8.721,-0.019,0.031,0.078,0.086
8.731,-0.016,0.103,0.002,0.104
8.741,0.021,0.306,-0.005,0.307
8.751,-0.01,0.143,0.061,0.155
8.761,-0.012,0.191,0.078,0.207
8.771,0.006,0.276,0.021,0.277
8.781,-0.007,0.209,0.099,0.231
8.791,0.013,0.082,0.215,0.231
8.802,0.022,0.016,-0.052,0.059
8.812,0.053,0.115,0.111,0.169
8.822,-0.079,0.072,0.066,0.125
8.832,-0.012,-0.005,0.103,0.104
8.842,-0.063,0.135,0.042,0.155
8.852,-0.091,0.137,0.062,0.176
8.862,-0.083,0.257,0.082,0.282
8.872,-0.013,0.086,0.052,0.101
8.882,-0.018,0.136,-0.033,0.142
8.893,-0.019,0.06,0.058,0.086
8.903,-0.057,0.183,-0.025,0.193
8.913,-0.044,0.102,0.12,0.164
8.923,0.004,0.018,-0.056,0.058
8.933,-0.135,0.11,0.147,0.228
8.943,-0.044,0.141,0.106,0.182
8.953,-0.041,0.13,0.106,0.173
8.963,-0.001,0.192,-0.075,0.206
8.973,-0.128,-0.008,0.054,0.139
8.984,0.043,0.039,0.158,0.168
8.994,-0.035,0.157,0.041,0.166
9.004,-0.032,0.047,0.002,0.057
9.014,-0.072,0.123,0.033,0.147
9.024,-0.016,-0.091,0.073,0.117
9.034,-0.046,0.319,0.019,0.323
9.044,0.024,0.079,0.165,0.184
9.054,-0.135,0.196,0.074,0.249
9.065,-0.039,0.072,0.04,0.091
9.075,-0.025,0.131,-0.012,0.134
9.085,-0.061,0.216,0.113,0.251
9.095,-0.074,0.189,0.112,0.231
9.105,-0.071,0.078,0.024,0.108
9.115,-0.039,0.082,-0.077,0.119
9.125,-0.158,0.172,0.108,0.258
9.135,0.008,0.277,0.067,0.285
9.145,-0.079,0.105,0.103,0.167
9.156,-0.042,0.245,0.217,0.33
9.166,-0.028,0.068,0.078,0.107
9.176,-0.082,0.162,0.044,0.186
9.186,-0.058,0.172,-0.0,0.182
9.196,-0.172,0.05,0.058,0.188
9.206,-0.006,0.022,0.091,0.094
9.216,0.015,0.172,0.084,0.192
9.226,-0.152,0.036,0.201,0.254
9.237,-0.074,0.006,0.115,0.137
9.247,-0.123,0.021,0.07,0.143
9.257,-0.06,0.031,0.03,0.074
9.267,-0.01,0.141,0.098,0.173
9.277,0.01,0.112,0.016,0.114
9.287,0.019,0.127,0.092,0.158
9.297,0.03,0.102,0.114,0.156
9.307,-0.062,0.019,0.064,0.091
9.317,-0.117,0.121,0.035,0.172
9.328,-0.055,0.158,-0.074,0.183
9.338,-0.009,0.108,0.159,0.193
9.348,-0.121,0.096,0.107,0.188
9.358,0.053,-0.003,0.108,0.121
9.368,0.007,0.074,-0.031,0.08
9.378,-0.058,-0.011,0.175,0.185
9.388,-0.088,0.051,0.045,0.112
9.398,-0.085,-0.08,0.057,0.13
9.409,-0.04,-0.081,0.003,0.09
9.419,-0.058,0.033,-0.048,0.082
9.429,0.013,0.003,0.158,0.158
9.439,-0.064,0.053,0.167,0.186
9.449,-0.013,0.032,0.065,0.073
9.459,-0.044,0.044,0.028,0.068
9.469,-0.026,0.088,0.049,0.104
9.479,-0.055,0.0,0.051,0.075
9.489,0.001,0.018,-0.009,0.02
9.5,0.003,0.15,0.054,0.16
9.51,-0.012,0.032,0.085,0.092
9.52,-0.003,0.016,0.145,0.146
9.53,-0.095,0.035,0.074,0.126
9.54,-0.019,0.014,-0.037,0.044
9.55,0.037,-0.032,0.097,0.109
9.56,-0.007,-0.057,0.054,0.079
9.57,-0.098,-0.04,0.168,0.198
9.58,-0.039,0.089,0.171,0.197
9.591,-0.012,-0.033,0.173,0.177
9.601,-0.08,0.003,0.031,0.085
9.611,-0.115,0.069,0.209,0.248
9.621,-0.052,-0.011,0.094,0.108
9.631,-0.076,0.06,0.183,0.207
9.641,-0.032,-0.116,0.033,0.124
9.651,-0.126,-0.005,0.047,0.135
9.661,0.004,0.01,0.086,0.087
9.672,-0.067,0.004,0.077,0.102
9.682,0.032,-0.132,0.154,0.205
9.692,-0.044,0.094,0.049,0.115
9.702,-0.028,-0.072,0.146,0.166
9.712,-0.036,0.021,0.116,0.123
9.722,-0.066,-0.007,0.049,0.083
9.732,0.124,0.071,0.109,0.18
9.742,-0.053,0.164,0.029,0.174
9.752,0.039,-0.117,0.226,0.257
9.763,-0.087,-0.067,-0.125,0.167
9.773,0.002,-0.002,0.108,0.108
9.783,0.009,-0.107,-0.064,0.125
9.793,-0.02,0.042,0.043,0.064
9.803,-0.052,0.045,0.052,0.087
9.813,-0.033,0.02,0.163,0.168
9.823,-0.041,-0.008,0.009,0.042
9.833,0.129,0.081,0.148,0.212
9.844,-0.016,-0.123,-0.027,0.127
9.854,0.018,-0.027,0.149,0.153
9.864,0.094,-0.093,0.021,0.134
9.874,-0.064,0.036,0.058,0.094
9.884,-0.009,-0.184,0.029,0.187
9.894,-0.026,-0.042,0.142,0.15
9.904,-0.014,-0.014,0.127,0.129
9.914,-0.019,-0.119,0.081,0.145
9.924,-0.051,-0.095,-0.031,0.112
9.935,0.006,-0.045,-0.001,0.046
9.945,-0.069,0.028,-0.024,0.078
9.955,0.055,-0.133,-0.11,0.181
9.965,0.034,-0.12,0.134,0.184
9.975,-0.032,0.037,0.022,0.054
9.985,-0.028,-0.077,0.021,0.084
9.995,0.016,-0.119,0.148,0.191
10.005,-0.047,-0.0,0.009,0.048
10.016,0.11,-0.099,-0.017,0.149
10.026,0.024,0.02,0.025,0.04
10.036,0.027,-0.116,-0.039,0.126
10.046,0.045,-0.078,0.063,0.11
10.056,-0.03,0.009,0.012,0.033
10.066,0.072,-0.086,0.002,0.112
10.076,0.014,-0.009,-0.005,0.018
10.086,0.065,-0.076,0.028,0.104
10.096,-0.003,0.086,0.041,0.095
10.107,0.089,0.051,-0.003,0.103
10.117,0.035,-0.182,0.008,0.186
10.127,0.143,-0.035,0.026,0.149
10.137,-0.009,-0.144,0.018,0.145
10.147,0.026,-0.065,0.032,0.077
10.157,-0.047,-0.076,-0.018,0.091
10.167,-0.016,-0.167,0.099,0.195
10.177,0.054,0.0,0.034,0.063
10.187,0.085,-0.069,-0.009,0.11
10.198,0.196,-0.11,0.049,0.23
10.208,0.013,-0.123,0.019,0.125
10.218,-0.036,-0.078,-0.098,0.131
10.228,0.066,-0.058,0.046,0.099
10.238,-0.046,-0.102,-0.05,0.123
10.248,0.056,-0.32,0.086,0.336
10.258,-0.007,-0.093,0.003,0.093
10.268,0.037,-0.211,0.073,0.226
10.279,0.091,-0.113,-0.027,0.148
10.289,0.019,-0.21,0.021,0.212
10.299,0.083,-0.212,0.1,0.249
10.309,0.08,-0.001,-0.004,0.08
10.319,-0.084,-0.127,-0.028,0.154
10.329,-0.025,-0.134,0.058,0.148
10.339,-0.064,-0.064,0.056,0.107
10.349,0.151,-0.134,-0.028,0.203
10.359,0.025,0.063,-0.129,0.146
10.37,0.139,-0.128,-0.034,0.192
10.38,-0.065,-0.078,0.055,0.115
10.39,-0.001,-0.03,-0.048,0.056
10.4,0.082,0.02,0.005,0.085
10.41,0.046,-0.169,-0.042,0.18
10.42,0.068,-0.143,-0.132,0.206
10.43,-0.039,-0.009,-0.045,0.06
10.44,0.12,-0.047,0.049,0.137
10.451,0.084,-0.026,-0.166,0.188
10.461,0.062,-0.222,0.017,0.232
10.471,-0.002,0.01,-0.085,0.085
10.481,0.059,-0.175,0.04,0.189
10.491,0.022,-0.099,0.046,0.112
10.501,-0.059,-0.127,-0.017,0.141
10.511,0.038,-0.186,-0.018,0.191
10.521,0.032,-0.229,-0.063,0.24
10.531,0.106,-0.256,-0.102,0.295
10.542,-0.091,-0.108,0.11,0.179
10.552,0.057,-0.24,-0.07,0.256
10.562,-0.026,-0.209,0.099,0.232
