time,ax,ay,az,atotal
0.0,-0.052,0.052,0.008,0.074
0.01,-0.078,0.091,-0.029,0.123
0.02,0.048,0.082,0.046,0.106
0.03,-0.057,0.165,0.048,0.181
0.04,-0.041,-0.13,-0.036,0.141
0.051,-0.083,-0.125,0.027,0.153
0.061,-0.024,0.028,0.066,0.076
0.071,0.065,0.157,0.062,0.181
0.081,0.039,-0.055,0.071,0.098
0.091,0.067,-0.169,0.056,0.19
0.101,0.041,0.119,-0.001,0.126
0.111,-0.056,0.094,-0.003,0.11
0.121,-0.009,-0.011,-0.051,0.053
0.132,-0.035,-0.001,0.156,0.16
0.142,0.093,0.002,0.032,0.098
0.152,-0.058,0.09,0.014,0.107
0.162,0.069,0.032,-0.036,0.084
0.172,0.07,0.123,0.233,0.273
0.182,0.127,-0.143,-0.048,0.197
0.192,-0.007,0.018,-0.004,0.019
0.202,0.061,-0.003,0.054,0.082
0.212,0.156,0.068,0.066,0.183
0.223,-0.017,0.047,0.09,0.103
0.233,-0.071,0.155,0.149,0.226
0.243,-0.091,-0.056,0.056,0.121
0.253,0.066,0.097,-0.054,0.129
0.263,-0.089,0.14,0.001,0.166
0.273,0.002,0.245,0.04,0.248
0.283,0.052,0.059,0.162,0.18
0.293,0.037,0.124,-0.082,0.153
0.304,0.053,-0.045,0.099,0.121
0.314,0.041,-0.091,0.027,0.103
0.324,0.105,0.169,0.072,0.212
0.334,-0.028,0.102,0.005,0.106
0.344,-0.01,0.198,-0.048,0.204
0.354,-0.015,-0.005,0.063,0.065
0.364,0.082,0.147,0.055,0.177
0.374,0.086,0.256,0.076,0.281
0.384,0.06,0.141,0.006,0.153
0.395,0.105,0.13,-0.036,0.171
0.405,-0.036,0.11,-0.104,0.155
0.415,0.135,-0.016,0.061,0.149
0.425,0.127,0.219,0.033,0.255
0.435,0.081,0.062,-0.066,0.121
0.445,0.144,0.152,-0.037,0.213
0.455,-0.062,-0.013,-0.033,0.071
0.465,0.007,0.019,-0.105,0.107
0.476,-0.005,0.229,-0.059,0.236
0.486,0.083,0.087,-0.083,0.146
0.496,-0.023,0.231,-0.033,0.235
0.506,0.086,0.109,-0.057,0.15
0.516,0.124,-0.031,-0.12,0.175
0.526,0.084,0.188,0.134,0.246
0.536,0.059,0.07,0.079,0.121
0.546,-0.016,0.173,-0.064,0.185
0.556,-0.007,0.12,0.009,0.12
0.567,0.119,-0.005,0.018,0.12
0.577,0.091,0.132,0.071,0.175
0.587,0.042,0.294,-0.071,0.306
0.597,0.02,0.158,0.062,0.171
0.607,-0.076,0.115,-0.054,0.148
0.617,-0.018,0.205,-0.11,0.234
0.627,0.161,0.136,0.033,0.214
0.637,-0.03,0.136,0.072,0.157
0.648,0.058,0.032,0.162,0.175
0.658,0.108,0.139,-0.104,0.204
0.668,-0.028,0.203,0.028,0.207
0.678,0.059,0.053,-0.051,0.094
0.688,0.104,0.234,0.032,0.258
0.698,0.049,0.113,-0.127,0.177
0.708,0.221,0.049,-0.114,0.253
0.718,-0.051,0.2,-0.08,0.221
0.729,0.113,0.097,-0.022,0.15
0.739,0.039,0.18,-0.073,0.198
0.749,0.096,0.096,0.017,0.137
0.759,0.076,0.114,0.042,0.144
0.769,0.006,0.158,0.011,0.159
0.779,0.063,0.142,0.082,0.176
0.789,-0.062,-0.041,-0.004,0.074
0.799,0.086,0.028,-0.119,0.149
0.809,0.068,0.192,0.061,0.212
0.82,0.088,0.107,-0.078,0.159
0.83,0.113,0.075,0.027,0.139
0.84,0.072,0.008,0.073,0.103
0.85,0.059,0.029,-0.006,0.066
0.86,-0.003,-0.046,-0.144,0.151
0.87,0.007,0.107,-0.104,0.149
0.88,0.121,0.066,0.052,0.147
0.89,0.136,0.036,-0.054,0.15
0.901,0.035,0.108,-0.037,0.119
0.911,0.052,0.141,0.01,0.151
0.921,-0.005,0.279,0.004,0.279
0.931,0.12,-0.01,-0.026,0.123
0.941,0.089,0.203,-0.061,0.23
0.951,0.165,0.187,-0.069,0.259
0.961,-0.004,0.046,0.012,0.048
0.971,0.026,0.124,-0.01,0.127
0.981,0.062,0.07,-0.067,0.115
0.992,0.087,0.121,0.026,0.151
1.002,0.035,0.226,-0.06,0.236
1.012,-0.005,0.153,-0.111,0.189
1.022,0.1,0.144,-0.105,0.204
1.032,0.09,0.068,-0.122,0.166
1.042,-0.009,-0.017,-0.073,0.076
1.052,0.127,0.084,0.032,0.155
1.062,0.116,0.196,-0.112,0.253
1.073,0.053,-0.024,-0.043,0.072
1.083,0.049,0.013,-0.103,0.115
1.093,0.077,0.106,-0.076,0.151
1.103,-0.008,0.016,-0.164,0.165
1.113,0.045,0.03,-0.074,0.092
1.123,-0.086,0.058,-0.073,0.127
1.133,0.095,-0.018,-0.022,0.099
1.143,-0.052,0.012,-0.045,0.07
1.153,0.131,0.145,-0.145,0.244
1.164,0.021,-0.017,0.014,0.03
1.174,0.027,-0.042,-0.048,0.069
1.184,0.002,0.034,-0.05,0.06
1.194,0.022,0.142,-0.065,0.157
1.204,0.123,0.066,-0.101,0.173
1.214,-0.112,0.043,-0.05,0.13
1.224,0.114,0.083,-0.033,0.144
1.234,0.057,-0.062,-0.189,0.207
1.245,-0.037,0.116,-0.105,0.16
1.255,-0.029,0.105,-0.085,0.139
1.265,0.135,0.04,-0.05,0.15
1.275,-0.023,0.152,0.015,0.155
1.285,-0.036,-0.02,-0.123,0.13
1.295,0.1,0.159,-0.105,0.215
1.305,0.052,0.079,-0.106,0.142
1.315,-0.026,0.038,-0.127,0.135
1.325,0.043,0.062,-0.095,0.122
1.336,-0.032,0.053,-0.018,0.065
1.346,0.094,0.158,-0.146,0.235
1.356,0.091,-0.027,-0.043,0.104
1.366,0.059,-0.004,-0.192,0.201
1.376,0.048,0.138,-0.113,0.185
1.386,0.131,0.006,-0.097,0.163
1.396,0.024,0.124,0.043,0.134
1.406,-0.047,0.186,-0.094,0.214
1.417,0.05,0.016,-0.229,0.235
1.427,0.147,0.101,-0.215,0.28
1.437,-0.04,-0.047,-0.073,0.096
1.447,-0.002,0.104,-0.033,0.109
1.457,0.044,0.057,-0.05,0.088
1.467,0.015,0.078,-0.065,0.102
1.477,-0.041,-0.014,0.005,0.044
1.487,0.084,-0.097,-0.115,0.172
1.497,0.155,0.074,-0.015,0.172
1.508,0.027,-0.133,-0.192,0.235
1.518,-0.04,0.005,-0.141,0.147
1.528,-0.08,0.104,-0.205,0.243
1.538,0.027,0.042,-0.097,0.11
1.548,0.077,0.181,-0.082,0.213
1.558,0.039,0.105,-0.071,0.132
1.568,0.009,-0.031,-0.075,0.081
1.578,-0.027,0.022,-0.144,0.148
1.589,-0.058,0.014,-0.092,0.11
1.599,0.056,-0.111,-0.184,0.222
1.609,0.06,-0.062,0.016,0.088
1.619,-0.088,-0.033,-0.101,0.138
1.629,0.099,-0.153,-0.114,0.215
1.639,0.037,0.012,0.031,0.05
1.649,0.086,-0.014,-0.167,0.188
1.659,-0.08,-0.13,-0.159,0.22
1.669,-0.082,0.035,-0.157,0.18
1.68,-0.01,0.058,-0.085,0.103
1.69,0.028,0.017,-0.05,0.059
1.7,0.105,-0.029,-0.028,0.112
1.71,0.038,0.042,0.1,0.115
1.72,-0.02,0.047,-0.237,0.243
1.73,-0.068,0.015,-0.037,0.079
1.74,0.067,-0.077,-0.119,0.157
1.75,-0.066,0.009,-0.121,0.138
1.761,0.089,0.081,-0.123,0.172
1.771,-0.027,-0.064,-0.143,0.159
1.781,0.085,0.149,0.038,0.176
1.791,0.029,-0.063,-0.021,0.072
1.801,-0.021,-0.02,-0.078,0.083
1.811,-0.045,-0.078,0.015,0.091
1.821,-0.035,-0.008,-0.185,0.188
1.831,0.01,-0.167,-0.172,0.24
1.842,-0.012,-0.073,-0.231,0.243
1.852,-0.053,-0.119,-0.128,0.182
1.862,-0.028,-0.023,-0.067,0.076
1.872,-0.014,0.044,-0.071,0.085
1.882,-0.147,0.015,-0.068,0.163
1.892,0.007,-0.229,-0.177,0.289
1.902,-0.08,0.123,-0.021,0.148
1.912,-0.092,-0.019,-0.061,0.111
1.922,-0.124,-0.106,-0.026,0.166
1.933,-0.132,-0.034,-0.209,0.249
1.943,-0.106,-0.034,-0.055,0.124
1.953,-0.068,-0.103,-0.159,0.202
1.963,0.091,-0.035,-0.104,0.142
1.973,-0.059,-0.102,-0.038,0.123
1.983,-0.017,-0.087,-0.069,0.112
1.993,-0.005,-0.111,-0.134,0.175
2.003,-0.022,-0.173,-0.074,0.189
2.014,-0.035,-0.048,-0.181,0.191
2.024,-0.103,-0.015,0.007,0.104
2.034,0.055,-0.022,-0.088,0.106
2.044,0.076,0.001,0.005,0.076
2.054,-0.134,-0.04,-0.109,0.178
2.064,-0.095,-0.11,-0.109,0.182
2.074,-0.052,-0.002,-0.125,0.135
2.084,-0.093,-0.18,-0.01,0.203
2.094,-0.006,-0.145,-0.12,0.188
2.105,-0.08,-0.151,-0.025,0.173
2.115,0.093,0.011,-0.096,0.134
2.125,0.033,-0.002,-0.207,0.21
2.135,-0.026,-0.039,-0.108,0.118
2.145,0.022,0.006,-0.151,0.152
2.155,0.027,-0.152,-0.065,0.167
2.165,-0.074,-0.055,-0.15,0.176
2.175,-0.09,-0.094,-0.002,0.13
2.186,-0.037,-0.018,-0.072,0.083
2.196,0.01,-0.096,-0.078,0.124
2.206,-0.034,-0.119,-0.019,0.125
2.216,-0.138,-0.046,0.003,0.145
2.226,-0.092,-0.02,-0.065,0.114
2.236,-0.048,-0.145,-0.117,0.193
2.246,-0.049,-0.098,-0.186,0.216
2.256,0.074,-0.179,-0.11,0.222
2.266,-0.128,-0.295,-0.104,0.338
2.277,-0.015,-0.08,-0.053,0.097
2.287,0.043,-0.049,-0.084,0.106
2.297,0.09,-0.078,-0.011,0.119
2.307,-0.071,-0.256,-0.101,0.284
2.317,-0.018,-0.129,-0.061,0.144
2.327,-0.013,-0.279,0.026,0.281
2.337,-0.036,0.007,-0.032,0.049
2.347,-0.054,-0.191,-0.059,0.207
2.358,-0.022,-0.004,-0.097,0.099
2.368,-0.2,-0.03,-0.098,0.225
2.378,-0.008,-0.179,-0.113,0.211
2.388,-0.041,-0.198,-0.09,0.221
2.398,-0.062,-0.08,0.001,0.102
2.408,0.074,-0.177,-0.066,0.202
2.418,-0.09,-0.102,-0.144,0.198
2.428,-0.074,-0.149,0.075,0.182
2.438,0.07,-0.254,-0.026,0.265
2.449,-0.1,-0.29,-0.146,0.34
2.459,-0.083,-0.095,-0.078,0.148
2.469,-0.059,-0.158,-0.038,0.173
2.479,0.0,-0.158,0.074,0.175
2.489,-0.038,-0.059,-0.122,0.14
2.499,-0.128,-0.021,0.025,0.132
2.509,-0.082,-0.137,0.056,0.169
2.519,-0.086,-0.143,-0.086,0.188
2.53,-0.055,-0.077,-0.06,0.112
2.54,-0.024,-0.226,-0.112,0.253
2.55,-0.025,-0.1,-0.053,0.116
2.56,-0.156,-0.074,-0.041,0.177
2.57,0.014,-0.064,0.009,0.066
2.58,-0.034,-0.273,0.04,0.278
2.59,0.034,-0.18,-0.088,0.203
2.6,-0.022,-0.189,-0.172,0.257
2.61,0.017,-0.111,-0.035,0.118
2.621,-0.021,-0.081,-0.012,0.084
2.631,0.032,0.0,-0.014,0.035
2.641,-0.017,-0.159,-0.054,0.169
2.651,-0.054,-0.16,-0.021,0.17
2.661,0.089,-0.028,0.077,0.121
2.671,0.006,-0.096,-0.001,0.096
2.681,-0.013,-0.019,-0.053,0.058
2.691,-0.123,-0.097,-0.061,0.168
2.702,-0.124,-0.213,-0.037,0.249
2.712,-0.029,-0.227,0.091,0.246
2.722,-0.037,-0.244,-0.036,0.249
2.732,-0.082,-0.067,-0.023,0.108
2.742,-0.036,-0.024,-0.055,0.07
2.752,0.051,0.029,0.057,0.081
2.762,-0.002,-0.052,0.118,0.129
2.772,-0.112,-0.026,0.013,0.116
2.782,-0.05,-0.165,-0.011,0.173
2.793,-0.091,-0.211,-0.014,0.23
2.803,-0.065,-0.05,-0.182,0.2
2.813,-0.066,-0.084,0.038,0.114
2.823,-0.07,-0.108,-0.004,0.129
2.833,-0.116,-0.086,0.018,0.145
2.843,-0.048,-0.09,-0.061,0.119
2.853,-0.073,-0.013,-0.037,0.083
2.863,-0.214,-0.012,-0.038,0.218
2.874,0.085,-0.071,0.063,0.128
2.884,0.028,-0.046,-0.034,0.064
2.894,-0.059,-0.072,0.14,0.168
2.904,-0.035,-0.15,0.025,0.156
2.914,-0.106,-0.052,-0.093,0.15
2.924,0.067,-0.223,-0.012,0.233
2.934,0.08,-0.026,-0.048,0.096
2.944,-0.024,-0.205,-0.155,0.258
2.954,0.029,-0.086,0.112,0.144
2.965,-0.022,-0.176,0.05,0.184
2.975,-0.111,-0.063,0.039,0.134
2.985,-0.055,-0.109,0.015,0.123
2.995,-0.022,-0.233,-0.093,0.252
3.005,-0.056,-0.071,-0.029,0.095
3.015,-0.041,-0.15,0.065,0.169
3.025,-0.033,-0.032,-0.066,0.081
3.035,-0.031,-0.102,-0.169,0.2
3.046,-0.023,-0.069,-0.007,0.073
3.056,-0.089,-0.176,0.0,0.197
3.066,-0.067,-0.146,0.021,0.162
3.076,-0.1,-0.134,0.063,0.179
3.086,0.036,-0.028,0.058,0.074
3.096,-0.148,0.039,0.032,0.156
3.106,0.048,-0.159,0.099,0.193
3.116,0.063,-0.007,-0.09,0.11
3.127,-0.037,-0.265,0.053,0.273
3.137,-0.174,-0.186,0.062,0.262
3.147,-0.039,-0.166,-0.068,0.183
3.157,-0.02,-0.196,-0.085,0.215
3.167,-0.076,-0.213,-0.031,0.229
3.177,-0.045,-0.052,-0.024,0.073
3.187,0.078,-0.101,0.076,0.149
3.197,0.027,-0.052,-0.019,0.062
3.207,-0.067,-0.026,-0.035,0.08
3.218,-0.107,-0.059,-0.017,0.123
3.228,-0.03,-0.026,0.105,0.112
3.238,-0.022,-0.083,0.029,0.09
3.248,0.022,-0.171,0.016,0.173
3.258,-0.039,0.011,0.022,0.046
3.268,0.025,-0.12,0.121,0.172
3.278,0.111,-0.146,-0.021,0.184
3.288,0.045,-0.084,0.125,0.157
3.299,-0.006,-0.141,0.048,0.149
3.309,-0.013,-0.1,0.023,0.103
3.319,-0.023,-0.037,0.21,0.215
3.329,0.07,-0.035,-0.038,0.087
3.339,-0.037,-0.133,0.012,0.139
3.349,0.004,-0.099,-0.048,0.11
3.359,0.006,0.028,0.106,0.109
3.369,-0.027,-0.017,0.158,0.161
3.379,-0.078,0.111,0.158,0.208
3.39,0.025,0.041,0.127,0.136
3.4,0.003,0.04,0.029,0.049
3.41,0.037,-0.161,0.018,0.166
3.42,-0.024,0.013,-0.073,0.078
3.43,0.082,-0.05,0.188,0.211
3.44,-0.043,-0.089,0.079,0.126
3.45,0.114,-0.029,0.012,0.118
3.46,-0.093,0.035,0.14,0.172
3.471,0.039,0.001,-0.02,0.044
3.481,0.042,-0.108,0.078,0.139
3.491,-0.033,0.024,0.038,0.056
3.501,0.041,-0.085,0.095,0.134
3.511,0.093,-0.014,0.047,0.105
3.521,-0.116,-0.054,-0.049,0.137
3.531,0.048,-0.046,0.058,0.088
3.541,-0.13,0.035,0.127,0.186
3.551,-0.038,-0.108,0.053,0.126
3.562,0.119,0.133,0.11,0.209
3.572,-0.013,-0.166,-0.017,0.168
3.582,-0.048,-0.067,0.055,0.099
3.592,0.012,0.013,0.014,0.022
3.602,0.148,0.032,0.11,0.188
3.612,-0.085,-0.021,0.061,0.107
3.622,-0.037,-0.016,0.108,0.115
3.632,0.117,0.024,0.136,0.181
3.643,0.139,-0.026,0.109,0.179
3.653,0.022,0.106,0.081,0.135
3.663,-0.045,0.064,-0.008,0.078
3.673,0.156,0.068,0.063,0.181
3.683,0.126,-0.077,0.026,0.15
3.693,0.072,-0.004,0.04,0.083
3.703,-0.017,-0.02,0.038,0.046
3.713,0.03,-0.074,-0.003,0.08
3.723,0.024,0.037,-0.071,0.084
3.734,0.054,-0.033,0.02,0.066
3.744,0.122,0.064,0.081,0.16
3.754,0.088,-0.072,-0.027,0.117
3.764,-0.028,0.153,0.069,0.17
3.774,0.12,-0.054,0.202,0.241
3.784,0.056,0.037,0.141,0.156
3.794,0.079,0.084,0.185,0.218
3.804,0.127,-0.023,0.097,0.162
3.815,-0.027,0.093,0.152,0.181
3.825,0.038,-0.072,0.02,0.084
3.835,0.009,0.145,0.026,0.147
3.845,-0.053,0.032,-0.12,0.135
3.855,0.062,-0.015,0.155,0.168
3.865,0.193,0.01,0.181,0.264
3.875,-0.068,0.101,0.035,0.126
3.885,0.041,-0.009,0.056,0.07
3.895,0.082,-0.02,0.021,0.087
3.906,0.051,0.024,0.101,0.116
3.916,0.038,-0.051,0.154,0.166
3.926,-0.033,0.191,-0.047,0.199
3.936,0.059,0.001,0.104,0.12
3.946,0.0,0.115,0.056,0.128
3.956,-0.085,0.067,0.084,0.137
3.966,0.118,-0.027,0.109,0.163
3.976,0.104,0.053,0.064,0.133
3.987,0.05,0.118,0.07,0.146
3.997,0.061,0.042,0.062,0.097
4.007,0.112,0.154,0.145,0.24
4.017,0.061,0.142,0.107,0.188
4.027,0.103,0.135,0.093,0.194
4.037,0.031,0.027,-0.011,0.042
4.047,0.127,-0.021,0.052,0.139
4.057,0.068,0.018,0.142,0.158
4.067,0.061,0.084,0.081,0.132
4.078,-0.027,0.114,0.125,0.171
4.088,0.067,-0.102,0.203,0.237
4.098,-0.0,0.072,0.152,0.168
4.108,0.011,0.087,0.086,0.123
4.118,0.001,0.054,0.044,0.069
4.128,-0.014,0.181,-0.099,0.207
4.138,0.177,0.113,0.068,0.221
4.148,0.13,0.185,0.057,0.233
4.159,0.165,0.064,0.107,0.207
4.169,-0.023,0.158,0.069,0.174
4.179,0.054,0.215,0.058,0.229
4.189,-0.028,0.191,-0.045,0.198
4.199,0.008,-0.0,0.014,0.016
4.209,-0.005,0.068,0.113,0.132
4.219,0.124,0.062,0.2,0.244
4.229,0.026,0.13,0.073,0.151
4.24,0.114,0.147,0.103,0.212
4.25,0.086,0.026,0.147,0.172
4.26,0.187,0.1,0.023,0.214
4.27,-0.04,-0.066,0.105,0.13
4.28,0.124,0.212,0.028,0.248
4.29,0.117,0.057,0.14,0.191
4.3,-0.01,0.104,0.09,0.138
4.31,0.109,0.075,0.1,0.166
4.32,0.068,0.193,0.024,0.206
4.331,0.034,-0.125,0.128,0.182
4.341,-0.002,0.102,0.225,0.247
4.351,0.004,0.096,0.008,0.096
4.361,0.17,0.069,0.055,0.191
4.371,0.046,0.244,0.094,0.266
4.381,0.093,0.036,0.133,0.166
4.391,-0.002,0.169,0.039,0.174
4.401,-0.002,0.137,-0.121,0.183
4.412,0.11,0.21,0.172,0.293
4.422,-0.037,0.057,0.13,0.147
4.432,0.019,0.052,-0.045,0.072
4.442,0.045,0.199,0.034,0.207
4.452,0.05,0.146,0.186,0.242
4.462,0.032,-0.011,0.177,0.18
4.472,0.066,0.07,0.141,0.171
4.482,0.083,0.145,0.063,0.179
4.492,0.085,0.182,0.081,0.216
4.503,-0.019,0.061,0.065,0.091
4.513,0.023,-0.117,0.153,0.194
4.523,0.111,0.158,0.012,0.194
4.533,0.092,0.019,0.017,0.096
4.543,-0.044,-0.044,0.144,0.157
4.553,0.058,-0.109,0.069,0.142
4.563,-0.082,0.183,0.168,0.262
4.573,0.039,0.129,0.025,0.137
4.584,0.149,0.101,0.067,0.192
4.594,-0.022,0.23,0.006,0.231
4.604,-0.016,0.17,0.071,0.185
4.614,0.079,0.249,-0.034,0.263
4.624,-0.06,0.008,0.035,0.07
4.634,-0.006,0.117,-0.032,0.121
4.644,0.067,-0.01,0.117,0.135
4.654,-0.008,0.102,0.118,0.156
4.664,0.015,0.1,-0.054,0.115
4.675,0.073,0.17,0.16,0.245
4.685,0.053,0.124,0.241,0.276
4.695,0.043,0.17,0.068,0.188
4.705,0.006,0.176,0.02,0.177
4.715,0.048,0.292,0.262,0.395
4.725,0.017,0.094,-0.029,0.1
4.735,0.051,0.044,0.064,0.093
4.745,-0.007,0.139,0.075,0.158
4.756,0.011,0.055,0.156,0.166
4.766,-0.038,0.238,0.086,0.255
4.776,0.018,0.096,0.025,0.101
4.786,-0.029,0.073,-0.007,0.079
4.796,-0.048,0.08,0.035,0.1
4.806,0.033,0.175,-0.012,0.179
4.816,0.03,0.105,0.061,0.125
4.826,0.063,0.066,0.017,0.093
4.836,-0.011,0.25,-0.049,0.255
4.847,0.039,0.048,0.143,0.156
4.857,0.046,0.118,0.02,0.129
4.867,0.039,0.167,-0.035,0.175
4.877,-0.038,-0.016,0.041,0.058
4.887,0.02,0.152,0.057,0.164
4.897,0.031,0.029,-0.071,0.083
4.907,0.009,0.178,0.074,0.193
4.917,-0.117,0.035,-0.023,0.125
4.928,0.016,0.167,0.169,0.238
4.938,0.139,0.199,0.085,0.257
4.948,-0.017,0.179,0.02,0.18
4.958,-0.04,0.129,-0.005,0.135
4.968,0.025,0.09,0.039,0.101
4.978,0.021,0.061,0.088,0.109
4.988,0.073,0.224,0.042,0.239
4.998,-0.075,0.049,0.028,0.094
5.008,0.043,0.022,0.047,0.067
5.019,0.034,0.157,-0.001,0.16
5.029,-0.011,0.039,0.017,0.044
5.039,0.017,0.026,-0.106,0.11
5.049,0.057,-0.015,0.107,0.122
5.059,0.047,0.061,0.059,0.097
5.069,-0.075,0.092,-0.017,0.12
5.079,0.042,0.117,0.169,0.21
5.089,-0.012,0.172,0.041,0.178
5.1,-0.005,0.137,-0.038,0.142
5.11,-0.006,0.079,0.094,0.122
5.12,-0.02,0.077,0.061,0.1
5.13,0.059,0.132,0.059,0.157
5.14,-0.018,0.192,0.001,0.193
5.15,-0.081,0.099,0.061,0.142
5.16,-0.038,0.05,0.011,0.064
5.17,-0.005,0.007,0.067,0.067
5.18,0.057,-0.031,-0.106,0.125
5.191,0.019,0.137,-0.004,0.138
5.201,-0.07,0.129,0.146,0.206
5.211,0.13,0.127,-0.03,0.184
5.221,-0.004,0.069,-0.019,0.072
5.231,0.055,0.191,-0.009,0.199
5.241,-0.031,0.038,-0.064,0.08
5.251,0.009,0.152,-0.134,0.203
5.261,0.027,0.07,0.003,0.075
5.272,0.049,0.023,0.028,0.061
5.282,0.038,0.118,0.014,0.125
5.292,0.026,0.102,0.006,0.105
5.302,-0.046,0.096,0.018,0.108
5.312,-0.062,0.072,0.086,0.128
5.322,-0.009,0.061,-0.0,0.062
5.332,0.027,0.254,-0.028,0.257
5.342,-0.043,0.156,-0.008,0.162
5.352,0.033,0.117,0.051,0.132
5.363,0.056,0.067,0.108,0.139
5.373,-0.087,0.137,-0.036,0.166
5.383,-0.083,0.096,0.014,0.128
5.393,-0.042,0.055,0.03,0.075
5.403,-0.016,0.027,-0.064,0.071
5.413,-0.067,0.043,0.006,0.079
5.423,0.045,-0.206,-0.099,0.233
5.433,-0.011,0.062,-0.122,0.137
5.444,-0.035,0.005,0.027,0.044
5.454,-0.124,0.169,-0.027,0.212
5.464,-0.117,0.042,0.013,0.125
5.474,-0.022,-0.057,-0.003,0.061
5.484,-0.168,0.033,-0.071,0.185
5.494,0.021,-0.049,-0.007,0.054
5.504,-0.05,0.071,-0.091,0.126
5.514,0.153,0.054,0.091,0.187
5.525,0.097,0.106,-0.102,0.176
5.535,-0.053,-0.036,-0.022,0.068
5.545,-0.049,0.028,-0.082,0.1
5.555,0.016,-0.085,0.03,0.092
5.565,0.058,0.078,-0.034,0.103
5.575,-0.142,0.062,-0.048,0.163
5.585,-0.152,0.058,0.047,0.169
5.595,-0.082,0.016,-0.012,0.085
5.605,-0.01,0.048,0.021,0.053
5.616,-0.016,0.141,-0.085,0.165
5.626,0.018,-0.012,-0.115,0.117
5.636,-0.119,0.02,-0.011,0.121
5.646,-0.186,-0.08,-0.041,0.207
5.656,0.004,-0.065,0.024,0.069
5.666,-0.097,0.011,-0.027,0.101
5.676,-0.169,0.089,-0.008,0.191
5.686,-0.039,-0.021,-0.137,0.144
5.697,-0.001,-0.022,0.108,0.11
5.707,-0.056,-0.037,-0.036,0.076
5.717,-0.076,-0.049,0.023,0.094
5.727,-0.059,0.015,-0.085,0.105
5.737,-0.071,-0.13,-0.006,0.149
5.747,-0.13,0.09,-0.12,0.199
5.757,-0.092,-0.067,0.002,0.114
5.767,-0.018,0.042,-0.056,0.072
5.777,-0.03,-0.12,-0.03,0.127
5.788,-0.04,0.034,0.016,0.055
5.798,-0.11,0.032,-0.12,0.165
5.808,-0.061,0.007,-0.082,0.103
5.818,-0.181,-0.105,-0.003,0.209
5.828,-0.039,-0.007,0.111,0.118
5.838,0.036,-0.124,-0.047,0.137
5.848,-0.138,-0.051,0.003,0.148
5.858,-0.085,0.049,-0.046,0.109
5.869,-0.03,0.029,0.096,0.105
5.879,0.025,-0.035,-0.163,0.169
5.889,-0.077,-0.116,-0.035,0.144
5.899,-0.091,0.011,-0.156,0.181
5.909,-0.168,-0.04,-0.219,0.279
5.919,-0.043,-0.229,-0.023,0.235
5.929,0.073,0.017,-0.035,0.083
5.939,-0.032,-0.049,-0.066,0.088
5.949,-0.05,0.047,-0.054,0.088
5.96,-0.029,-0.138,0.169,0.221
5.97,-0.049,-0.307,-0.066,0.317
5.98,-0.097,-0.032,-0.013,0.103
5.99,0.002,-0.033,-0.095,0.101
6.0,-0.034,-0.193,-0.03,0.198
6.01,-0.046,-0.137,-0.068,0.16
6.02,-0.105,0.16,-0.081,0.208
6.03,0.032,-0.087,0.074,0.119
6.041,-0.006,-0.006,0.029,0.03
6.051,-0.079,-0.118,-0.045,0.149
6.061,0.015,-0.235,-0.217,0.32
6.071,-0.075,-0.082,-0.081,0.138
6.081,-0.092,-0.092,0.133,0.185
6.091,-0.09,-0.104,-0.074,0.156
6.101,-0.15,-0.083,0.019,0.172
6.111,-0.015,-0.054,0.042,0.07
6.121,-0.153,-0.088,-0.044,0.182
6.132,-0.116,-0.179,-0.119,0.244
6.142,-0.166,-0.04,-0.231,0.288
6.152,-0.046,-0.237,-0.014,0.242
6.162,-0.05,-0.246,-0.119,0.278
6.172,-0.06,-0.024,-0.05,0.082
6.182,-0.102,-0.044,-0.151,0.188
6.192,-0.109,-0.091,-0.083,0.164
6.202,-0.011,-0.199,-0.062,0.209
6.213,-0.071,-0.145,-0.046,0.168
6.223,-0.018,-0.111,-0.144,0.183
6.233,-0.09,-0.219,0.017,0.237
6.243,-0.025,-0.152,-0.109,0.188
6.253,0.043,-0.042,-0.185,0.194
6.263,0.001,0.019,-0.076,0.078
6.273,-0.059,-0.13,-0.066,0.157
6.283,-0.018,-0.037,-0.058,0.071
6.293,-0.047,-0.251,0.026,0.257
6.304,-0.031,-0.047,-0.087,0.103
6.314,-0.05,-0.165,-0.079,0.19
6.324,-0.04,-0.077,-0.148,0.172
6.334,-0.017,-0.122,-0.014,0.124
6.344,-0.088,0.002,-0.059,0.106
6.354,-0.089,-0.174,-0.102,0.221
6.364,-0.11,-0.055,-0.206,0.24
6.374,-0.122,-0.129,0.028,0.18
6.385,-0.098,-0.12,-0.16,0.222
6.395,-0.015,-0.123,-0.115,0.169
6.405,-0.077,-0.176,-0.049,0.199
6.415,0.008,-0.111,-0.159,0.194
6.425,-0.02,-0.115,-0.18,0.214
6.435,-0.139,-0.092,-0.224,0.279
6.445,0.019,-0.105,-0.025,0.11
6.455,0.029,-0.049,-0.114,0.128
6.465,-0.078,-0.039,0.128,0.155
6.476,0.008,-0.198,-0.146,0.246
6.486,-0.068,-0.045,-0.142,0.163
6.496,-0.01,-0.21,-0.117,0.24
6.506,-0.091,-0.068,-0.061,0.129
6.516,-0.122,-0.066,-0.111,0.177
6.526,-0.036,-0.269,-0.035,0.274
6.536,-0.02,-0.109,-0.147,0.184
6.546,-0.035,-0.155,-0.175,0.236
6.557,-0.081,-0.178,-0.205,0.283
6.567,-0.033,-0.01,-0.234,0.237
6.577,0.008,-0.171,-0.115,0.206
6.587,-0.01,-0.183,-0.1,0.209
6.597,0.004,-0.113,-0.123,0.167
6.607,-0.046,-0.064,0.008,0.079
6.617,0.066,-0.131,0.006,0.146
6.627,-0.074,-0.026,-0.103,0.13
6.638,0.027,-0.077,-0.205,0.221
6.648,0.069,-0.294,-0.119,0.325
6.658,0.028,-0.162,-0.122,0.205
6.668,-0.012,-0.165,-0.126,0.208
6.678,-0.031,-0.082,-0.129,0.156
6.688,0.064,-0.33,-0.126,0.359
6.698,-0.082,0.084,-0.107,0.159
6.708,-0.054,-0.077,-0.124,0.156
6.718,-0.019,-0.108,-0.065,0.128
6.729,0.08,-0.025,-0.055,0.1
6.739,0.03,0.068,-0.144,0.162
6.749,-0.05,-0.05,0.009,0.071
6.759,-0.01,-0.043,-0.148,0.155
6.769,-0.027,-0.108,-0.193,0.223
6.779,-0.032,-0.13,-0.053,0.144
6.789,0.07,-0.156,-0.137,0.219
6.799,-0.07,-0.184,-0.057,0.205
6.81,0.11,-0.173,-0.248,0.321
6.82,0.064,-0.225,0.018,0.235
6.83,0.081,-0.123,-0.032,0.15
6.84,-0.012,-0.251,-0.184,0.311
6.85,0.008,-0.101,-0.182,0.208
6.86,-0.068,-0.118,0.039,0.142
6.87,-0.013,-0.103,-0.13,0.166
6.88,0.049,-0.156,-0.136,0.213
6.89,0.098,0.133,-0.236,0.288
6.901,-0.045,-0.004,-0.102,0.112
6.911,0.0,-0.212,-0.093,0.232
6.921,0.014,-0.093,-0.027,0.098
6.931,-0.06,-0.16,-0.175,0.244
6.941,0.06,-0.191,-0.183,0.271
6.951,-0.018,-0.217,-0.045,0.222
6.961,0.015,-0.074,-0.005,0.076
6.971,0.0,-0.162,-0.186,0.246
6.982,-0.019,-0.03,0.001,0.035
6.992,0.028,-0.027,-0.072,0.082
7.002,0.017,0.005,0.002,0.017
7.012,0.008,-0.172,-0.079,0.19
7.022,-0.013,-0.065,-0.25,0.259
7.032,0.051,-0.052,-0.084,0.111
7.042,0.132,-0.139,0.001,0.192
7.052,0.042,-0.162,-0.135,0.215
7.062,0.094,0.03,-0.099,0.14
7.073,-0.049,-0.08,-0.084,0.126
7.083,0.045,-0.046,-0.274,0.282
7.093,-0.03,-0.162,0.046,0.171
7.103,-0.052,-0.192,-0.133,0.24
7.113,-0.007,-0.139,-0.034,0.143
7.123,0.109,-0.102,-0.075,0.168
7.133,0.096,-0.176,0.019,0.201
7.143,0.054,-0.091,-0.04,0.113
7.154,-0.052,-0.224,-0.084,0.245
7.164,0.029,-0.177,-0.13,0.221
7.174,0.059,-0.032,-0.011,0.068
7.184,0.052,-0.036,-0.197,0.207
7.194,-0.069,-0.115,-0.02,0.135
7.204,-0.011,-0.163,-0.142,0.216
7.214,0.039,-0.163,0.024,0.169
7.224,0.076,-0.109,-0.052,0.142
7.234,-0.088,-0.026,-0.018,0.093
7.245,0.035,-0.002,-0.057,0.066
7.255,0.053,-0.114,-0.184,0.223
7.265,0.096,-0.165,-0.121,0.226
7.275,0.087,-0.05,-0.013,0.101
7.285,0.081,-0.136,-0.048,0.165
7.295,-0.002,-0.11,0.024,0.112
7.305,-0.068,0.039,-0.03,0.084
7.315,0.023,0.001,-0.125,0.127
7.326,0.107,-0.051,-0.113,0.164
7.336,0.131,-0.164,-0.049,0.216
7.346,0.091,-0.044,-0.217,0.239
7.356,0.074,0.026,0.062,0.1
7.366,0.071,-0.087,-0.023,0.115
7.376,0.015,0.053,0.033,0.064
7.386,0.041,0.05,-0.163,0.175
7.396,0.149,0.081,0.036,0.173
7.406,-0.007,-0.026,0.105,0.109
7.417,0.146,-0.002,-0.142,0.204
7.427,0.03,0.066,0.005,0.073
7.437,0.129,-0.009,-0.048,0.138
7.447,-0.035,-0.083,-0.156,0.18
7.457,0.085,-0.077,-0.012,0.116
7.467,0.006,-0.021,0.012,0.025
7.477,-0.035,-0.141,-0.087,0.17
7.487,0.063,-0.048,0.037,0.087
7.498,0.111,0.053,-0.16,0.202
7.508,-0.001,-0.208,-0.147,0.255
7.518,-0.04,0.092,-0.032,0.106
7.528,0.044,0.061,-0.039,0.085
7.538,0.045,-0.064,-0.09,0.119
7.548,0.083,0.018,0.018,0.087
7.558,0.107,-0.023,-0.001,0.109
7.568,0.046,0.077,0.023,0.093
7.578,0.161,0.059,-0.045,0.177
7.589,0.063,-0.129,0.007,0.144
7.599,0.028,0.031,-0.066,0.078
7.609,-0.048,-0.03,0.11,0.124
7.619,0.033,-0.005,-0.09,0.096
7.629,0.028,-0.068,0.116,0.137
7.639,0.106,0.132,-0.028,0.171
7.649,0.076,0.077,-0.126,0.166
7.659,-0.023,-0.063,0.067,0.095
7.67,0.058,-0.109,-0.019,0.125
7.68,0.087,-0.031,0.033,0.098
7.69,0.139,0.036,0.06,0.155
7.7,0.1,0.023,-0.001,0.102
7.71,0.092,0.106,-0.066,0.155
7.72,0.049,0.07,0.045,0.097
7.73,0.069,0.087,-0.022,0.113
7.74,0.12,0.037,0.027,0.128
7.75,-0.035,-0.098,-0.171,0.2
7.761,0.023,-0.001,0.012,0.026
7.771,-0.003,0.102,-0.063,0.12
7.781,0.066,0.014,0.098,0.119
7.791,0.116,0.061,0.027,0.134
7.801,0.006,-0.003,0.001,0.007
7.811,-0.102,-0.058,0.02,0.119
7.821,0.016,0.016,-0.083,0.086
7.831,0.095,0.053,0.101,0.149
7.842,0.072,-0.023,0.128,0.149
7.852,0.065,0.013,0.017,0.069
7.862,0.022,-0.042,0.102,0.112
7.872,-0.039,0.125,-0.048,0.139
7.882,0.069,0.014,-0.063,0.094
7.892,-0.013,0.155,-0.003,0.156
7.902,0.167,0.163,0.025,0.235
7.912,0.07,0.036,-0.032,0.085
7.923,0.0,-0.036,0.034,0.05
7.933,-0.002,-0.121,0.019,0.122
7.943,0.028,-0.07,-0.071,0.104
7.953,0.018,-0.06,0.036,0.073
7.963,0.099,0.162,0.061,0.199
7.973,0.043,0.062,0.014,0.077
7.983,-0.013,0.086,0.084,0.121
7.993,0.143,-0.121,-0.081,0.205
8.003,0.032,-0.038,0.038,0.062
8.014,0.074,0.131,-0.076,0.169
8.024,-0.009,0.084,-0.071,0.111
8.034,0.049,0.051,-0.036,0.079
8.044,0.045,0.11,-0.057,0.132
8.054,-0.088,0.197,-0.028,0.218
8.064,0.145,0.05,-0.004,0.154
8.074,0.101,0.075,0.071,0.144
8.084,-0.001,0.086,-0.009,0.087
8.095,-0.044,0.264,-0.097,0.285
8.105,0.042,-0.094,0.095,0.14
8.115,0.025,0.13,-0.043,0.139
8.125,0.04,0.068,0.013,0.08
8.135,0.03,0.124,0.049,0.136
8.145,0.048,0.027,0.033,0.064
8.155,0.103,0.077,0.097,0.161
8.165,0.05,0.14,0.055,0.158
8.175,-0.048,0.333,-0.038,0.339
8.186,0.095,0.15,0.175,0.25
8.196,0.111,0.019,0.038,0.119
8.206,0.201,0.054,0.015,0.209
8.216,-0.056,0.053,0.093,0.121
8.226,0.025,-0.053,0.044,0.073
8.236,-0.116,0.065,0.056,0.144
8.246,0.041,0.152,0.203,0.257
8.256,-0.026,-0.008,0.01,0.029
8.267,0.122,0.179,0.008,0.217
8.277,-0.041,0.136,0.04,0.147
8.287,-0.097,0.039,0.107,0.15
8.297,-0.025,0.087,-0.072,0.116
8.307,-0.116,0.228,-0.103,0.276
8.317,0.047,0.16,-0.006,0.166
8.327,-0.123,0.103,-0.078,0.178
8.337,0.001,0.084,0.007,0.084
8.347,-0.126,0.11,0.073,0.183
8.358,-0.022,0.064,-0.024,0.071
8.368,0.095,-0.063,-0.06,0.129
8.378,0.017,0.27,0.045,0.274
8.388,-0.057,0.12,0.102,0.167
8.398,-0.008,0.14,-0.076,0.16
8.408,-0.006,0.104,0.101,0.145
8.418,0.02,0.051,0.101,0.115
8.428,-0.091,0.096,0.112,0.173
8.439,0.026,-0.017,0.131,0.135
8.449,-0.173,0.294,0.201,0.396
8.459,-0.05,0.014,0.022,0.056
8.469,-0.042,0.031,0.056,0.076
8.479,0.024,0.079,0.02,0.085
8.489,-0.013,0.218,0.05,0.224
8.499,-0.1,0.116,0.158,0.22
8.509,-0.075,0.017,-0.043,0.088
8.519,-0.005,0.216,-0.008,0.217
8.53,-0.023,0.175,0.149,0.231
8.54,-0.054,0.16,0.125,0.21
8.55,-0.049,0.175,0.029,0.184
8.56,0.021,0.309,0.115,0.331
8.57,-0.053,0.293,0.08,0.308
8.58,-0.028,0.064,0.162,0.176
8.59,0.107,0.249,0.063,0.278
8.6,-0.11,0.15,0.13,0.226
8.611,-0.136,0.159,0.244,0.321
8.621,0.021,-0.016,0.101,0.105
8.631,-0.067,0.106,0.064,0.141
8.641,-0.046,0.055,0.111,0.132
8.651,-0.075,0.186,0.036,0.204
8.661,-0.045,0.206,0.229,0.311
8.671,0.066,-0.046,0.075,0.11
8.681,0.018,0.118,0.044,0.127
8.691,0.02,0.21,0.005,0.211
8.702,-0.117,0.105,0.141,0.211
8.712,-0.102,0.178,0.126,0.241
8.722,-0.204,0.148,0.031,0.254
8.732,-0.083,0.147,0.107,0.2
8.742,0.023,0.098,-0.039,0.108
8.752,-0.004,0.022,0.08,0.083
8.762,-0.049,0.029,0.1,0.115
8.772,-0.038,0.176,0.188,0.26
8.783,-0.079,0.12,0.015,0.144
8.793,-0.026,0.107,-0.02,0.112
8.803,0.007,0.084,0.007,0.085
8.813,-0.136,0.093,-0.023,0.167
8.823,-0.022,0.201,0.165,0.261
8.833,0.016,0.09,0.18,0.202
8.843,-0.066,0.009,0.094,0.115
8.853,0.001,0.175,0.158,0.236
8.863,0.127,0.099,0.082,0.181
8.874,-0.049,0.117,0.067,0.143
8.884,-0.019,0.243,0.05,0.249
8.894,-0.088,0.112,0.052,0.151
8.904,-0.033,0.136,-0.034,0.144
8.914,-0.017,0.018,0.093,0.096
8.924,-0.033,0.094,0.072,0.123
8.934,-0.106,0.159,0.128,0.23
8.944,-0.033,-0.015,0.082,0.09
8.955,0.042,0.125,0.065,0.147
8.965,-0.02,0.116,0.015,0.119
8.975,0.011,0.111,0.082,0.138
8.985,-0.061,0.19,0.129,0.237
8.995,-0.002,0.133,-0.003,0.133
9.005,-0.031,0.223,0.084,0.24
9.015,-0.105,0.024,0.094,0.143
9.025,-0.029,0.114,0.028,0.121
9.036,-0.108,0.109,0.037,0.158
9.046,-0.087,0.015,0.095,0.129
9.056,-0.038,0.176,-0.001,0.18
9.066,-0.031,0.285,0.103,0.305
9.076,-0.121,0.096,0.016,0.155
9.086,0.014,0.137,0.154,0.206
9.096,-0.015,0.102,0.243,0.264
9.106,-0.092,0.037,0.019,0.101
9.116,-0.142,-0.053,0.117,0.191
9.127,-0.059,0.035,0.029,0.074
9.137,-0.077,-0.021,0.153,0.172
9.147,-0.043,0.226,-0.009,0.23
9.157,-0.072,0.079,0.113,0.156
9.167,-0.17,0.059,0.019,0.181
9.177,-0.073,0.157,0.065,0.185
9.187,-0.068,-0.006,0.008,0.069
9.197,-0.012,0.021,0.138,0.14
9.208,-0.092,0.087,0.021,0.128
9.218,0.051,0.162,0.119,0.207
9.228,-0.164,0.119,0.056,0.21
9.238,0.029,0.097,0.072,0.124
9.248,-0.063,0.082,0.09,0.137
9.258,0.002,0.106,0.026,0.109
9.268,-0.044,0.089,0.094,0.137
9.278,0.019,-0.011,0.187,0.188
9.288,-0.072,0.073,0.025,0.106
9.299,-0.114,-0.018,0.161,0.199
9.309,0.037,0.073,0.184,0.201
9.319,-0.055,0.026,0.022,0.065
9.329,-0.034,0.266,-0.023,0.269
9.339,0.027,0.058,0.1,0.119
9.349,-0.109,-0.052,0.04,0.128
9.359,-0.011,0.047,0.209,0.215
9.369,-0.082,0.098,0.081,0.151
9.38,-0.054,0.189,0.022,0.197
9.39,-0.041,0.006,-0.002,0.042
9.4,-0.135,-0.075,0.154,0.218
9.41,-0.092,0.115,0.037,0.152
9.42,0.037,-0.062,0.08,0.108
9.43,0.009,0.011,0.144,0.144
9.44,-0.047,0.024,0.043,0.068
9.45,-0.028,0.037,0.073,0.087
9.46,-0.06,0.096,0.075,0.136
9.471,0.039,-0.016,0.123,0.13
9.481,-0.054,0.015,0.117,0.129
9.491,-0.027,0.034,0.059,0.074
9.501,0.028,0.046,0.079,0.095
9.511,-0.086,0.04,0.048,0.107
9.521,0.054,0.065,-0.03,0.09
9.531,-0.13,0.096,0.091,0.186
9.541,0.06,0.058,0.205,0.222
9.552,-0.06,0.061,0.011,0.086
9.562,-0.051,-0.104,0.018,0.117
9.572,-0.15,0.025,0.011,0.152
9.582,-0.063,0.057,0.122,0.148
9.592,-0.097,0.075,0.102,0.16
9.602,-0.071,-0.04,0.059,0.101
9.612,-0.042,-0.04,0.005,0.058
9.622,0.025,-0.035,0.076,0.087
9.632,-0.019,0.052,-0.041,0.069
9.643,-0.013,0.09,0.078,0.12
9.653,-0.096,-0.027,0.129,0.163
9.663,-0.083,0.076,-0.021,0.114
9.673,0.079,0.012,-0.041,0.09
9.683,-0.072,-0.01,0.177,0.191
9.693,0.072,-0.019,0.023,0.078
9.703,-0.041,0.056,0.144,0.16
9.713,-0.026,0.02,0.053,0.063
9.724,0.039,0.174,0.052,0.186
9.734,0.052,-0.078,0.094,0.133
9.744,-0.03,0.03,0.0,0.042
9.754,-0.046,-0.056,0.071,0.101
9.764,-0.025,-0.085,0.034,0.095
9.774,-0.0,-0.018,-0.032,0.037
9.784,0.034,-0.008,0.083,0.09
9.794,-0.019,0.212,0.041,0.217
9.804,0.019,-0.038,0.047,0.063
9.815,0.081,-0.115,-0.027,0.144
9.825,0.007,-0.005,0.168,0.168
9.835,0.003,-0.195,0.118,0.227
9.845,-0.106,-0.038,0.123,0.166
9.855,-0.171,-0.031,0.033,0.177
9.865,0.011,0.029,-0.067,0.074
9.875,-0.017,0.042,0.19,0.195
9.885,-0.042,-0.078,0.048,0.101
9.896,0.005,-0.052,-0.001,0.052
9.906,-0.012,-0.103,0.08,0.131
9.916,0.06,-0.133,0.132,0.197
9.926,-0.002,-0.02,0.048,0.052
9.936,-0.051,-0.149,0.138,0.209
9.946,0.054,-0.082,0.123,0.158
9.956,-0.017,-0.13,-0.028,0.134
9.966,0.028,-0.008,-0.001,0.03
9.976,-0.031,0.091,0.112,0.147
9.987,-0.04,-0.159,-0.146,0.22
9.997,0.005,-0.205,0.033,0.208
10.007,0.001,-0.069,-0.058,0.09
10.017,0.03,-0.059,0.008,0.067
10.027,-0.014,-0.044,0.02,0.051
10.037,-0.107,-0.099,0.015,0.146
10.047,-0.022,-0.081,0.0,0.084
10.057,0.053,-0.037,-0.039,0.075
10.068,-0.011,0.015,0.198,0.199
10.078,-0.007,-0.226,0.167,0.281
10.088,0.067,-0.101,-0.046,0.13
10.098,-0.034,-0.056,0.145,0.159
10.108,-0.082,-0.148,0.006,0.169
10.118,0.001,0.063,0.042,0.075
10.128,-0.017,-0.128,0.027,0.132
10.138,-0.045,-0.082,-0.015,0.095
10.148,0.003,-0.036,0.099,0.105
10.159,0.044,-0.129,0.038,0.142
10.169,0.015,-0.231,-0.005,0.231
10.179,0.035,-0.119,-0.064,0.139
10.189,0.126,-0.003,-0.036,0.131
10.199,-0.002,-0.114,-0.09,0.145
10.209,0.036,-0.156,0.025,0.162
10.219,-0.01,-0.016,-0.06,0.063
10.229,-0.03,-0.117,0.004,0.121
10.24,-0.013,-0.133,0.117,0.178
10.25,-0.006,-0.081,0.104,0.132
10.26,0.045,-0.033,0.017,0.058
10.27,0.165,0.095,0.012,0.191
10.28,-0.018,-0.031,0.149,0.153
10.29,0.001,-0.005,0.053,0.053
