time,ax,ay,az,atotal
0.0,-0.02,0.037,0.119,0.127
0.01,-0.043,0.129,0.001,0.136
0.02,-0.051,0.047,0.07,0.099
0.03,-0.025,0.2,-0.041,0.205
0.04,0.081,0.199,-0.072,0.227
0.051,0.067,0.039,0.094,0.122
0.061,0.004,0.061,0.039,0.073
0.071,0.068,0.067,0.005,0.096
0.081,-0.135,0.07,-0.038,0.156
0.091,0.056,-0.004,0.093,0.109
0.101,-0.058,-0.014,-0.071,0.093
0.111,0.116,0.175,0.103,0.234
0.121,-0.053,0.164,0.064,0.183
0.132,-0.039,0.164,-0.07,0.182
0.142,0.047,0.074,0.039,0.096
0.152,0.054,0.232,0.215,0.321
0.162,-0.012,0.08,0.112,0.138
0.172,0.038,0.153,-0.03,0.16
0.182,0.047,-0.026,0.077,0.094
0.192,0.041,0.068,-0.073,0.108
0.202,-0.006,0.075,-0.071,0.104
0.212,0.05,0.084,0.019,0.099
0.223,0.105,-0.016,0.062,0.123
0.233,-0.052,0.148,0.079,0.175
0.243,-0.028,0.175,0.079,0.194
0.253,0.025,0.034,0.055,0.069
0.263,-0.04,0.003,-0.094,0.102
0.273,-0.084,0.035,0.014,0.092
0.283,0.091,0.137,0.085,0.185
0.293,-0.107,0.051,0.047,0.128
0.304,0.003,0.089,0.028,0.093
0.314,0.073,0.015,0.037,0.084
0.324,0.045,0.26,0.035,0.266
0.334,0.006,0.108,-0.125,0.166
0.344,-0.036,0.195,0.092,0.219
0.354,0.052,0.144,0.002,0.153
0.364,-0.028,0.102,0.059,0.121
0.374,0.048,0.099,-0.153,0.189
0.384,0.042,0.049,0.123,0.139
0.395,0.043,0.072,-0.075,0.112
0.405,-0.004,0.028,0.183,0.185
0.415,0.157,0.02,0.152,0.22
0.425,0.057,0.277,-0.09,0.297
0.435,0.02,0.133,0.059,0.147
0.445,0.053,0.229,-0.07,0.245
0.455,-0.009,0.049,-0.045,0.067
0.465,0.015,0.013,-0.044,0.049
0.475,0.183,0.036,0.029,0.188
0.486,-0.006,0.081,0.02,0.083
0.496,0.036,0.118,-0.088,0.151
0.506,0.013,0.103,0.026,0.107
0.516,-0.021,0.054,-0.02,0.062
0.526,0.067,0.123,-0.135,0.195
0.536,0.045,0.131,-0.039,0.144
0.546,0.098,0.173,0.107,0.226
0.556,0.092,0.235,-0.038,0.256
0.567,0.098,0.089,-0.14,0.192
0.577,-0.011,0.216,0.045,0.22
0.587,0.083,0.124,-0.078,0.168
0.597,0.085,-0.003,0.001,0.085
0.607,-0.016,0.262,-0.027,0.264
0.617,0.027,0.301,0.107,0.321
0.627,-0.041,0.169,-0.029,0.176
0.637,0.087,0.127,-0.098,0.183
0.647,0.087,0.098,-0.052,0.141
0.658,0.133,0.083,-0.106,0.189
0.668,0.034,0.217,-0.036,0.222
0.678,0.075,0.119,0.102,0.173
0.688,0.107,0.254,0.064,0.283
0.698,0.003,0.123,0.119,0.171
0.708,-0.006,0.087,0.008,0.088
0.718,0.005,0.072,-0.016,0.074
0.728,0.028,0.06,-0.097,0.117
0.739,-0.003,0.161,-0.009,0.161
0.749,0.009,0.016,-0.038,0.042
0.759,0.102,0.054,0.025,0.118
0.769,0.044,0.225,-0.109,0.254
0.779,0.068,0.042,-0.028,0.085
0.789,0.017,0.187,-0.143,0.236
0.799,0.013,-0.047,-0.01,0.05
0.809,0.067,0.234,0.013,0.243
0.819,0.058,0.016,-0.149,0.16
0.83,0.097,0.047,-0.13,0.169
0.84,0.128,0.171,-0.128,0.249
0.85,0.008,0.137,-0.051,0.147
0.86,0.102,0.187,-0.137,0.253
0.87,-0.015,0.013,0.057,0.06
0.88,0.174,0.091,-0.01,0.197
0.89,0.003,0.064,0.0,0.064
0.9,0.091,0.024,-0.154,0.18
0.911,-0.016,0.16,0.047,0.168
0.921,0.04,0.187,0.001,0.191
0.931,0.142,0.084,-0.093,0.189
0.941,-0.0,0.232,-0.154,0.278
0.951,0.181,0.047,-0.052,0.194
0.961,0.048,0.229,-0.08,0.247
0.971,0.107,0.153,-0.078,0.202
0.981,0.072,0.009,-0.099,0.123
0.991,0.075,0.265,0.001,0.275
1.002,-0.038,0.07,-0.233,0.246
1.012,0.019,0.201,0.049,0.207
1.022,0.119,0.115,0.018,0.166
1.032,0.026,0.132,-0.038,0.14
1.042,0.055,0.173,-0.064,0.193
1.052,-0.047,0.168,0.021,0.176
1.062,0.013,0.072,-0.058,0.093
1.072,0.112,0.141,-0.076,0.195
1.083,-0.032,0.134,0.023,0.139
1.093,0.087,0.113,0.089,0.168
1.103,0.054,0.078,-0.126,0.158
1.113,0.029,0.11,-0.029,0.118
1.123,0.026,0.25,-0.136,0.285
1.133,0.013,0.067,-0.025,0.073
1.143,0.018,0.186,-0.115,0.22
1.153,0.097,0.039,0.023,0.107
1.163,0.015,0.017,-0.069,0.073
1.174,0.149,0.348,-0.06,0.383
1.184,0.057,0.128,0.051,0.149
1.194,0.004,0.129,-0.115,0.173
1.204,0.097,0.129,-0.017,0.162
1.214,0.075,0.193,-0.11,0.234
1.224,-0.062,0.112,0.018,0.129
1.234,-0.026,0.143,0.059,0.157
1.244,0.029,-0.009,-0.085,0.091
1.254,-0.06,0.153,-0.221,0.276
1.265,0.16,0.054,-0.116,0.205
1.275,0.083,0.125,0.102,0.181
1.285,0.032,-0.067,-0.111,0.133
1.295,0.012,0.119,0.054,0.131
1.305,-0.004,-0.112,-0.113,0.159
1.315,-0.087,0.043,-0.115,0.15
1.325,-0.074,-0.073,-0.017,0.105
1.335,0.143,0.113,-0.025,0.184
1.346,0.123,0.066,-0.012,0.14
1.356,-0.007,-0.003,-0.072,0.072
1.366,0.081,0.172,-0.0,0.19
1.376,0.056,-0.016,-0.006,0.059
1.386,0.063,-0.189,0.007,0.199
1.396,-0.061,0.093,-0.118,0.162
1.406,-0.085,-0.091,-0.002,0.124
1.416,0.094,-0.021,-0.111,0.147
1.426,-0.097,0.005,-0.086,0.13
1.437,0.012,-0.069,-0.088,0.112
1.447,-0.002,0.004,-0.146,0.146
1.457,-0.008,-0.071,-0.198,0.21
1.467,0.037,0.053,0.009,0.065
1.477,-0.023,-0.06,-0.126,0.142
1.487,0.04,0.039,-0.096,0.111
1.497,0.024,0.127,-0.128,0.182
1.507,0.141,0.095,-0.096,0.195
1.518,-0.069,0.024,-0.113,0.135
1.528,0.015,-0.05,0.011,0.054
1.538,0.038,0.04,-0.12,0.132
1.548,-0.004,-0.031,0.042,0.052
1.558,-0.07,0.039,0.001,0.08
1.568,0.085,-0.116,-0.112,0.182
1.578,0.029,0.084,-0.057,0.105
1.588,-0.069,0.02,-0.043,0.083
1.598,0.033,0.192,-0.02,0.196
1.609,0.108,0.118,-0.014,0.16
1.619,0.002,0.057,-0.066,0.088
1.629,0.003,0.0,-0.146,0.146
1.639,0.097,-0.05,-0.035,0.114
1.649,-0.057,0.082,-0.096,0.138
1.659,0.104,-0.014,-0.275,0.295
1.669,0.058,0.096,-0.053,0.124
1.679,-0.057,0.032,-0.131,0.147
1.69,-0.042,0.031,-0.112,0.124
1.7,-0.035,0.044,-0.08,0.097
1.71,-0.114,-0.079,-0.189,0.234
1.72,0.011,-0.089,-0.07,0.114
1.73,-0.059,-0.094,-0.102,0.15
1.74,0.011,0.073,-0.141,0.159
1.75,-0.085,-0.089,-0.077,0.145
1.76,0.047,-0.08,-0.198,0.219
1.77,0.035,0.026,-0.074,0.086
1.781,-0.053,-0.039,-0.047,0.081
1.791,0.01,-0.051,-0.058,0.078
1.801,-0.008,-0.06,-0.024,0.065
1.811,0.076,-0.21,0.002,0.223
1.821,-0.076,-0.103,-0.085,0.154
1.831,-0.024,0.067,-0.002,0.071
1.841,-0.055,-0.073,-0.085,0.124
1.851,-0.014,-0.184,-0.128,0.224
1.862,0.014,-0.114,-0.106,0.156
1.872,-0.058,-0.006,-0.06,0.083
1.882,-0.042,-0.01,-0.002,0.043
1.892,0.037,-0.062,-0.078,0.106
1.902,0.06,-0.096,-0.125,0.168
1.912,0.007,-0.155,0.024,0.157
1.922,-0.031,-0.015,-0.177,0.181
1.932,-0.038,0.021,-0.123,0.131
1.942,0.008,0.055,-0.014,0.058
1.953,-0.012,-0.138,0.048,0.147
1.963,-0.125,0.058,-0.042,0.144
1.973,0.007,-0.058,-0.058,0.082
1.983,-0.08,-0.053,-0.096,0.135
1.993,-0.114,0.015,-0.036,0.121
2.003,-0.13,-0.101,-0.065,0.177
2.013,-0.043,-0.233,-0.127,0.269
2.023,-0.092,-0.005,-0.095,0.133
2.033,-0.171,-0.035,-0.134,0.22
2.044,-0.054,-0.093,-0.072,0.13
2.054,-0.063,-0.016,-0.061,0.089
2.064,-0.043,-0.002,0.042,0.06
2.074,-0.072,-0.19,-0.113,0.233
2.084,0.074,-0.069,-0.084,0.132
2.094,-0.005,-0.255,0.018,0.255
2.104,-0.067,-0.084,0.056,0.121
2.114,-0.041,-0.105,-0.036,0.119
2.125,0.047,-0.038,-0.087,0.106
2.135,0.019,-0.164,-0.102,0.194
2.145,-0.123,-0.114,-0.197,0.259
2.155,-0.098,-0.338,-0.132,0.377
2.165,-0.087,-0.038,-0.06,0.112
2.175,-0.067,-0.091,-0.079,0.138
2.185,-0.077,-0.078,-0.022,0.112
2.195,-0.04,-0.206,-0.079,0.224
2.205,0.002,-0.056,-0.115,0.128
2.216,0.011,0.043,-0.04,0.06
2.226,-0.063,-0.105,0.112,0.166
2.236,-0.142,-0.04,-0.085,0.17
2.246,-0.107,-0.163,-0.052,0.202
2.256,-0.076,-0.1,-0.002,0.126
2.266,-0.12,-0.218,-0.101,0.268
2.276,0.023,-0.033,0.029,0.05
2.286,-0.117,-0.085,-0.17,0.223
2.297,-0.009,-0.196,-0.087,0.215
2.307,-0.148,-0.164,-0.08,0.235
2.317,-0.008,-0.096,-0.047,0.107
2.327,-0.056,-0.028,-0.195,0.204
2.337,0.043,0.016,0.039,0.06
2.347,-0.116,-0.115,-0.026,0.165
2.357,-0.082,-0.214,0.024,0.23
2.367,-0.071,-0.087,0.059,0.126
2.377,-0.058,0.036,-0.105,0.125
2.388,-0.07,-0.237,-0.227,0.336
2.398,-0.069,-0.185,0.029,0.199
2.408,-0.07,-0.06,-0.071,0.116
2.418,-0.174,-0.098,-0.129,0.237
2.428,0.01,-0.154,-0.009,0.155
2.438,0.122,-0.094,0.124,0.198
2.448,-0.032,-0.034,-0.055,0.072
2.458,-0.118,-0.121,0.02,0.17
2.469,-0.112,-0.128,-0.115,0.205
2.479,-0.013,-0.067,-0.163,0.177
2.489,-0.027,-0.136,0.02,0.14
2.499,-0.067,-0.024,-0.005,0.071
2.509,-0.005,0.047,-0.075,0.088
2.519,-0.174,-0.188,0.078,0.267
2.529,-0.005,-0.217,-0.164,0.272
2.539,-0.036,-0.087,-0.126,0.157
2.549,-0.11,-0.22,-0.077,0.258
2.56,-0.136,-0.222,-0.063,0.268
2.57,-0.042,-0.282,0.065,0.293
2.58,0.035,-0.149,-0.033,0.157
2.59,-0.063,-0.121,-0.049,0.145
2.6,-0.1,-0.16,-0.123,0.226
2.61,-0.037,-0.008,0.043,0.057
2.62,0.061,-0.014,-0.112,0.128
2.63,-0.023,0.035,-0.121,0.128
2.641,-0.016,-0.116,-0.059,0.131
2.651,0.025,-0.025,-0.018,0.04
2.661,-0.019,-0.095,-0.079,0.125
2.671,-0.094,-0.103,0.022,0.142
2.681,-0.152,-0.157,-0.047,0.224
2.691,-0.102,-0.301,0.048,0.321
2.701,-0.113,-0.069,0.01,0.133
2.711,-0.007,-0.028,0.101,0.105
2.721,0.002,-0.242,-0.054,0.248
2.732,-0.035,-0.12,0.037,0.131
2.742,-0.121,-0.04,-0.146,0.194
2.752,0.063,-0.148,0.182,0.243
2.762,-0.069,-0.024,0.036,0.082
2.772,-0.007,-0.13,-0.039,0.136
2.782,-0.04,-0.161,-0.035,0.169
2.792,-0.03,-0.018,-0.033,0.049
2.802,-0.008,-0.193,0.114,0.224
2.812,-0.083,-0.175,0.049,0.2
2.823,0.037,-0.189,-0.044,0.197
2.833,-0.135,-0.208,-0.099,0.267
2.843,-0.102,-0.104,0.073,0.163
2.853,0.038,-0.157,0.049,0.168
2.863,-0.003,-0.076,0.04,0.086
2.873,0.114,-0.253,-0.014,0.278
2.883,-0.033,-0.204,-0.028,0.208
2.893,0.065,-0.109,0.112,0.169
2.904,-0.148,0.005,0.119,0.19
2.914,-0.12,-0.082,0.041,0.151
2.924,0.019,-0.159,0.065,0.172
2.934,-0.139,-0.23,0.014,0.269
2.944,-0.045,-0.162,-0.097,0.194
2.954,0.037,-0.113,-0.069,0.137
2.964,-0.002,-0.297,0.081,0.308
2.974,-0.031,-0.205,0.091,0.226
2.984,-0.058,-0.166,0.077,0.191
2.995,-0.018,-0.126,0.028,0.131
3.005,0.006,-0.109,0.081,0.136
3.015,-0.068,-0.153,0.002,0.167
3.025,-0.005,-0.063,0.051,0.081
3.035,0.038,-0.092,-0.006,0.1
3.045,-0.039,-0.131,-0.065,0.151
3.055,-0.021,-0.048,0.071,0.088
3.065,0.005,-0.054,0.1,0.114
3.076,0.01,-0.214,0.185,0.283
3.086,0.03,-0.099,0.032,0.108
3.096,-0.083,-0.024,-0.059,0.104
3.106,-0.053,-0.01,-0.008,0.054
3.116,-0.049,-0.063,0.007,0.081
3.126,-0.073,-0.111,0.028,0.135
3.136,-0.126,-0.057,0.051,0.147
3.146,-0.213,-0.025,0.045,0.219
3.156,0.055,-0.079,0.075,0.122
3.167,-0.109,-0.069,0.035,0.133
3.177,0.079,-0.105,-0.134,0.188
3.187,0.031,-0.191,0.039,0.197
3.197,-0.037,-0.097,0.03,0.108
3.207,0.025,-0.136,0.064,0.152
3.217,0.015,-0.134,0.001,0.135
3.227,-0.076,0.036,0.043,0.094
3.237,-0.01,-0.001,0.067,0.068
3.248,-0.067,-0.211,0.018,0.222
3.258,0.032,-0.161,0.077,0.181
3.268,-0.049,-0.102,0.036,0.118
3.278,-0.011,-0.122,0.043,0.13
3.288,-0.013,-0.044,-0.172,0.178
3.298,0.004,-0.167,-0.047,0.174
3.308,0.097,0.01,-0.045,0.108
3.318,-0.016,-0.068,0.05,0.086
3.328,0.073,-0.09,0.125,0.171
3.339,0.029,-0.063,0.029,0.075
3.349,0.087,-0.093,0.097,0.16
3.359,-0.018,-0.221,0.084,0.237
3.369,0.045,-0.056,0.05,0.087
3.379,0.001,-0.081,0.081,0.114
3.389,-0.174,-0.13,0.059,0.225
3.399,-0.059,0.036,0.032,0.077
3.409,0.042,0.004,0.071,0.082
3.42,0.039,0.147,0.145,0.21
3.43,-0.069,0.021,0.078,0.106
3.44,0.023,-0.096,0.061,0.116
3.45,0.041,-0.115,-0.015,0.123
3.46,0.01,-0.08,0.147,0.168
3.47,0.056,-0.092,-0.05,0.119
3.48,0.049,-0.029,-0.07,0.09
3.49,0.012,-0.159,0.076,0.176
3.5,-0.015,0.018,-0.011,0.026
3.511,0.079,-0.025,0.128,0.152
3.521,0.045,0.013,-0.066,0.081
3.531,-0.065,-0.12,0.12,0.182
3.541,0.032,-0.007,0.111,0.116
3.551,-0.049,0.079,0.063,0.113
3.561,-0.037,-0.091,-0.092,0.135
3.571,-0.017,-0.092,-0.065,0.114
3.581,0.025,0.038,0.074,0.087
3.591,0.046,-0.094,0.041,0.113
3.602,-0.0,-0.034,0.109,0.114
3.612,0.003,0.105,0.054,0.118
3.622,-0.004,-0.081,0.049,0.095
3.632,0.09,0.114,-0.11,0.182
3.642,-0.144,-0.034,0.118,0.189
3.652,0.01,-0.095,0.016,0.097
3.662,0.122,0.045,0.034,0.134
3.672,0.061,0.007,-0.012,0.062
3.683,0.107,0.001,-0.044,0.115
3.693,-0.091,-0.059,0.167,0.199
3.703,-0.042,0.012,0.12,0.128
3.713,0.064,-0.16,0.122,0.211
3.723,0.127,0.025,0.051,0.139
3.733,-0.034,0.113,-0.055,0.131
3.743,0.012,-0.13,0.214,0.251
3.753,0.06,-0.019,0.097,0.116
3.763,-0.051,-0.055,0.078,0.108
3.774,0.068,-0.104,0.043,0.131
3.784,-0.123,-0.145,-0.074,0.204
3.794,0.068,-0.073,0.15,0.18
3.804,-0.021,0.004,-0.004,0.022
3.814,0.013,0.117,0.109,0.16
3.824,0.079,-0.095,0.125,0.176
3.834,0.067,0.052,0.095,0.127
3.844,0.041,0.048,0.105,0.122
3.855,0.1,0.166,0.167,0.255
3.865,-0.06,0.08,0.017,0.101
3.875,0.055,0.086,0.085,0.133
3.885,-0.004,0.094,0.058,0.11
3.895,0.099,-0.034,-0.055,0.118
3.905,0.085,-0.005,0.094,0.127
3.915,0.088,0.132,0.162,0.227
3.925,0.144,-0.119,0.171,0.253
3.935,0.113,-0.008,0.206,0.235
3.946,0.036,-0.058,-0.048,0.084
3.956,0.046,0.069,0.19,0.207
3.966,0.083,0.018,0.089,0.123
3.976,0.055,0.104,0.189,0.222
3.986,0.089,0.046,0.049,0.112
3.996,-0.086,-0.067,0.04,0.116
4.006,0.161,-0.061,-0.008,0.172
4.016,0.052,0.06,0.132,0.154
4.027,-0.049,0.0,0.114,0.124
4.037,-0.006,0.021,0.0,0.022
4.047,-0.079,0.14,-0.073,0.177
4.057,-0.016,0.127,0.108,0.168
4.067,0.041,0.212,0.116,0.245
4.077,0.14,0.045,0.01,0.147
4.087,0.074,0.02,-0.004,0.077
4.097,0.064,0.106,0.125,0.176
4.107,-0.018,0.03,0.209,0.212
4.118,0.0,0.034,0.045,0.056
4.128,0.005,0.061,0.018,0.064
4.138,0.008,0.211,0.101,0.234
4.148,0.029,0.137,0.124,0.187
4.158,0.033,0.146,0.054,0.16
4.168,0.03,0.212,0.222,0.308
4.178,0.01,0.157,0.143,0.212
4.188,0.058,-0.005,0.053,0.079
4.199,0.031,0.158,-0.031,0.164
4.209,-0.046,0.17,0.172,0.246
4.219,0.052,0.142,0.163,0.222
4.229,0.043,0.075,0.059,0.105
4.239,-0.045,0.136,0.104,0.177
4.249,0.014,0.092,0.069,0.116
4.259,0.085,0.016,0.116,0.145
4.269,-0.019,0.037,0.008,0.043
4.279,-0.026,0.153,-0.002,0.155
4.29,0.029,0.025,0.136,0.142
4.3,0.086,0.034,0.145,0.172
4.31,0.157,0.16,0.045,0.229
4.32,0.087,0.112,0.027,0.144
4.33,0.113,0.148,0.159,0.245
4.34,0.068,0.005,0.029,0.074
4.35,0.006,0.148,0.083,0.17
4.36,0.086,0.052,0.073,0.124
4.37,0.041,0.025,-0.024,0.054
4.381,0.069,0.066,0.091,0.132
4.391,-0.011,0.217,0.084,0.233
4.401,0.073,0.079,0.103,0.149
4.411,0.038,0.285,0.088,0.301
4.421,0.058,-0.055,0.227,0.24
4.431,0.039,-0.013,0.158,0.163
4.441,0.027,0.217,0.079,0.233
4.451,0.072,0.238,0.085,0.263
4.462,0.018,0.044,0.199,0.205
4.472,-0.053,0.119,0.136,0.188
4.482,-0.071,0.171,-0.011,0.186
4.492,0.052,0.096,0.141,0.179
4.502,0.014,0.127,0.161,0.206
4.512,-0.064,0.117,0.187,0.23
4.522,0.046,-0.002,0.046,0.065
4.532,0.033,0.089,0.04,0.103
4.542,0.008,0.118,0.007,0.119
4.553,0.052,0.126,0.094,0.165
4.563,0.116,-0.021,0.123,0.17
4.573,0.113,0.179,0.036,0.214
4.583,0.044,0.129,0.061,0.149
4.593,0.03,0.034,-0.073,0.086
4.603,0.043,0.263,0.176,0.319
4.613,0.052,0.092,-0.04,0.113
4.623,0.016,0.097,0.095,0.137
4.634,0.042,0.171,0.085,0.196
4.644,-0.063,0.271,0.071,0.287
4.654,0.035,0.174,0.072,0.192
4.664,0.058,0.186,-0.004,0.195
4.674,-0.001,0.04,0.043,0.059
4.684,0.022,0.127,0.134,0.186
4.694,-0.039,0.077,0.154,0.177
4.704,-0.049,0.176,0.035,0.186
4.714,0.038,0.184,-0.045,0.193
4.725,-0.019,0.25,0.009,0.251
4.735,-0.083,-0.053,0.193,0.216
4.745,-0.044,0.069,0.012,0.082
4.755,-0.036,0.223,0.055,0.233
4.765,0.068,0.007,0.16,0.174
4.775,0.031,0.183,0.023,0.187
4.785,-0.033,0.209,0.048,0.217
4.795,-0.016,0.116,0.115,0.164
4.806,0.097,0.004,0.178,0.203
4.816,0.073,0.108,0.012,0.131
4.826,-0.051,0.234,0.154,0.285
4.836,0.085,0.24,0.036,0.257
4.846,0.009,0.133,-0.007,0.133
4.856,0.061,0.037,0.072,0.102
4.866,0.003,0.254,-0.027,0.256
4.876,0.083,0.18,0.086,0.216
4.886,-0.059,0.041,0.273,0.282
4.897,-0.006,0.141,0.129,0.191
4.907,0.082,0.136,0.043,0.165
4.917,-0.136,0.061,0.124,0.193
4.927,0.004,0.139,-0.016,0.14
4.937,-0.018,0.199,-0.005,0.2
4.947,0.046,0.086,0.042,0.106
4.957,0.068,0.206,0.053,0.223
4.967,0.047,-0.032,-0.045,0.072
4.978,0.017,0.285,0.024,0.286
4.988,0.004,0.111,0.034,0.116
4.998,-0.02,0.191,0.151,0.245
5.008,0.012,0.122,-0.048,0.132
5.018,0.086,0.038,-0.055,0.109
5.028,-0.052,0.1,0.053,0.125
5.038,-0.028,-0.051,0.121,0.134
5.048,-0.009,0.156,0.078,0.174
5.058,0.055,0.115,0.059,0.141
5.069,0.007,0.083,0.017,0.085
5.079,0.052,0.158,0.084,0.186
5.089,0.054,0.099,0.093,0.146
5.099,0.026,0.144,0.017,0.147
5.109,-0.074,0.171,-0.033,0.189
5.119,0.089,0.049,-0.033,0.106
5.129,0.073,0.025,0.093,0.121
5.139,-0.009,-0.048,-0.077,0.091
5.149,-0.097,0.099,0.147,0.202
5.16,-0.108,0.124,-0.003,0.165
5.17,-0.0,-0.019,0.05,0.053
5.18,-0.059,0.199,0.076,0.221
5.19,-0.121,0.018,-0.022,0.124
5.2,-0.113,-0.086,-0.007,0.142
5.21,-0.047,0.201,0.033,0.209
5.22,-0.008,-0.078,-0.037,0.087
5.23,0.063,0.155,-0.053,0.176
5.241,0.007,0.134,-0.047,0.143
5.251,-0.046,0.101,0.105,0.152
5.261,-0.001,0.032,0.047,0.057
5.271,-0.007,0.112,-0.037,0.119
5.281,0.019,0.155,0.078,0.174
5.291,-0.028,-0.01,-0.035,0.046
5.301,0.035,0.146,-0.121,0.193
5.311,0.022,0.14,0.063,0.155
5.321,-0.024,0.088,0.129,0.157
5.332,-0.036,0.02,0.051,0.066
5.342,0.025,0.136,-0.121,0.184
5.352,-0.074,0.1,0.009,0.125
5.362,-0.122,-0.024,-0.01,0.125
5.372,-0.123,0.027,0.035,0.131
5.382,-0.081,0.12,-0.052,0.154
5.392,0.006,0.062,-0.017,0.064
5.402,-0.06,0.138,-0.094,0.177
5.413,-0.023,0.022,0.02,0.037
5.423,-0.065,-0.032,-0.094,0.119
5.433,-0.066,0.221,0.033,0.233
5.443,-0.099,-0.091,-0.051,0.143
5.453,-0.043,0.002,-0.22,0.224
5.463,-0.049,0.063,0.055,0.097
5.473,-0.014,0.117,0.033,0.123
5.483,-0.022,0.089,0.092,0.129
5.493,-0.052,0.22,-0.15,0.271
5.504,-0.131,0.024,-0.051,0.142
5.514,0.023,-0.039,0.003,0.045
5.524,-0.047,0.012,0.033,0.059
5.534,-0.037,0.002,-0.11,0.117
5.544,0.053,0.02,0.021,0.061
5.554,0.011,-0.055,-0.05,0.075
5.564,-0.017,0.085,-0.141,0.165
5.574,-0.044,0.05,-0.065,0.093
5.585,-0.045,-0.083,0.023,0.097
5.595,-0.031,0.094,-0.141,0.172
5.605,-0.021,-0.05,0.03,0.062
5.615,0.057,-0.082,0.004,0.1
5.625,0.102,0.018,-0.035,0.109
5.635,-0.029,-0.132,-0.132,0.189
5.645,-0.176,0.054,-0.128,0.224
5.655,-0.104,-0.222,-0.048,0.25
5.665,0.061,-0.079,-0.1,0.141
5.676,-0.005,0.127,-0.045,0.135
5.686,-0.023,-0.056,0.04,0.072
5.696,-0.058,-0.044,-0.043,0.085
5.706,-0.12,0.097,-0.046,0.161
5.716,0.052,-0.07,-0.047,0.099
5.726,-0.098,0.053,0.044,0.12
5.736,-0.005,0.084,0.063,0.105
5.746,-0.127,0.026,0.001,0.13
5.757,-0.062,-0.13,-0.02,0.145
5.767,0.01,-0.064,-0.015,0.067
5.777,-0.065,0.199,0.068,0.22
5.787,-0.072,-0.059,0.001,0.093
5.797,-0.049,0.217,0.073,0.235
5.807,-0.13,0.113,-0.064,0.184
5.817,-0.141,0.016,-0.129,0.192
5.827,-0.007,-0.003,-0.083,0.083
5.837,-0.075,-0.066,-0.076,0.126
5.848,-0.008,-0.038,0.074,0.084
5.858,0.017,-0.088,0.013,0.09
5.868,0.022,-0.04,-0.084,0.096
5.878,-0.147,-0.145,0.016,0.207
5.888,-0.092,-0.151,-0.051,0.184
5.898,-0.017,0.064,0.072,0.098
5.908,-0.016,-0.171,-0.067,0.184
5.918,0.086,0.027,-0.152,0.176
5.928,-0.104,-0.197,-0.058,0.23
5.939,0.021,0.003,-0.069,0.072
5.949,-0.026,-0.065,-0.141,0.157
5.959,-0.147,0.055,-0.006,0.157
5.969,-0.081,-0.079,0.052,0.124
5.979,-0.032,-0.215,-0.128,0.252
5.989,-0.15,-0.071,0.018,0.167
5.999,-0.172,-0.045,-0.093,0.201
6.009,-0.153,-0.07,-0.053,0.176
6.02,-0.031,-0.015,-0.061,0.07
6.03,-0.076,-0.108,-0.055,0.142
6.04,-0.083,-0.165,-0.021,0.186
6.05,-0.081,-0.146,-0.126,0.209
6.06,-0.131,-0.108,0.035,0.174
6.07,-0.072,-0.111,-0.021,0.134
6.08,-0.154,0.122,0.002,0.197
6.09,0.027,0.029,-0.112,0.119
6.1,0.058,-0.018,-0.136,0.149
6.111,-0.183,-0.039,0.024,0.189
6.121,-0.071,-0.052,-0.14,0.166
6.131,-0.067,-0.053,-0.05,0.099
6.141,-0.052,-0.066,0.011,0.085
6.151,0.019,-0.077,-0.07,0.106
6.161,-0.069,-0.249,0.02,0.259
6.171,-0.045,-0.113,-0.082,0.147
6.181,0.139,-0.104,-0.153,0.231
6.192,-0.046,-0.146,-0.038,0.158
6.202,0.068,-0.132,-0.051,0.157
6.212,-0.008,-0.065,0.123,0.139
6.222,-0.07,-0.029,-0.132,0.152
6.232,-0.08,-0.067,-0.084,0.134
6.242,-0.036,-0.033,-0.118,0.128
6.252,-0.103,-0.033,-0.077,0.133
6.262,-0.086,-0.119,-0.081,0.168
6.272,-0.059,-0.054,-0.13,0.152
6.283,-0.016,-0.237,-0.036,0.24
6.293,0.077,-0.129,-0.085,0.172
6.303,-0.061,-0.14,0.024,0.154
6.313,-0.003,0.022,-0.116,0.118
6.323,-0.128,-0.074,0.059,0.159
6.333,0.034,-0.209,-0.052,0.218
6.343,-0.132,-0.056,0.017,0.144
6.353,0.02,-0.032,-0.064,0.074
6.364,-0.032,-0.112,-0.127,0.173
6.374,-0.033,-0.051,-0.092,0.11
6.384,-0.043,-0.307,-0.171,0.354
6.394,-0.103,-0.324,-0.082,0.349
6.404,-0.099,-0.203,-0.062,0.234
6.414,0.027,-0.098,-0.072,0.124
6.424,-0.021,0.012,0.018,0.031
6.434,-0.04,-0.201,-0.086,0.222
6.444,0.006,-0.18,-0.208,0.275
6.455,-0.013,-0.105,0.172,0.202
6.465,-0.066,-0.152,-0.125,0.208
6.475,0.13,-0.158,-0.009,0.205
6.485,0.028,-0.148,-0.182,0.236
6.495,-0.008,-0.01,-0.06,0.061
6.505,-0.046,-0.026,-0.133,0.143
6.515,0.043,-0.114,-0.275,0.301
6.525,-0.06,0.016,-0.098,0.116
6.536,-0.065,-0.076,-0.082,0.129
6.546,0.09,-0.025,-0.094,0.133
6.556,-0.009,-0.187,-0.062,0.197
6.566,-0.055,-0.17,-0.098,0.204
6.576,-0.008,-0.171,-0.074,0.187
6.586,0.043,-0.126,-0.067,0.149
6.596,0.031,-0.114,-0.082,0.144
6.606,0.053,-0.093,-0.091,0.141
6.616,-0.08,0.038,-0.142,0.167
6.627,0.053,-0.062,-0.038,0.09
6.637,-0.014,-0.161,-0.1,0.19
6.647,0.003,-0.12,-0.105,0.16
6.657,0.072,0.0,-0.044,0.084
6.667,0.042,-0.057,-0.065,0.096
6.677,0.022,-0.001,-0.129,0.131
6.687,-0.117,-0.159,0.008,0.197
6.697,0.0,-0.177,-0.163,0.241
6.707,-0.043,-0.176,-0.152,0.236
6.718,0.047,-0.152,-0.033,0.163
6.728,0.065,-0.205,0.043,0.219
6.738,-0.011,-0.096,-0.12,0.154
6.748,-0.032,-0.094,-0.051,0.112
6.758,0.102,-0.012,-0.163,0.193
6.768,-0.027,-0.26,-0.145,0.299
6.778,-0.061,-0.194,-0.0,0.204
6.788,-0.039,-0.054,-0.054,0.085
6.799,-0.021,-0.103,0.002,0.105
6.809,-0.038,-0.114,-0.003,0.12
6.819,0.065,-0.016,-0.225,0.235
6.829,-0.117,-0.198,-0.163,0.281
6.839,-0.037,-0.175,-0.06,0.188
6.849,0.014,-0.184,-0.197,0.27
6.859,0.03,-0.276,-0.152,0.317
6.869,0.12,-0.104,0.022,0.161
6.879,0.112,-0.156,-0.116,0.225
6.89,-0.076,-0.172,-0.028,0.19
6.9,-0.093,-0.186,-0.08,0.223
6.91,0.024,-0.114,-0.125,0.171
6.92,-0.017,-0.176,-0.194,0.262
6.93,-0.048,-0.093,-0.06,0.121
6.94,0.026,-0.074,0.025,0.082
6.95,0.039,-0.133,-0.122,0.185
6.96,-0.024,-0.138,-0.071,0.157
6.971,-0.01,-0.093,-0.182,0.205
6.981,-0.018,-0.109,-0.122,0.165
6.991,0.004,0.0,-0.051,0.051
7.001,0.062,-0.08,-0.022,0.103
7.011,-0.034,-0.017,-0.035,0.052
7.021,-0.007,-0.055,-0.216,0.223
7.031,0.008,-0.208,-0.105,0.233
7.041,0.032,-0.146,-0.141,0.205
7.051,0.05,-0.104,-0.094,0.149
7.062,0.156,-0.03,-0.08,0.178
7.072,0.069,0.056,0.003,0.089
7.082,0.071,-0.136,-0.05,0.161
7.092,0.02,-0.092,0.029,0.098
7.102,-0.022,-0.031,-0.119,0.125
7.112,0.006,-0.098,-0.169,0.195
7.122,-0.005,0.039,0.033,0.051
7.132,0.062,-0.199,-0.038,0.212
7.143,-0.06,-0.036,-0.12,0.139
7.153,0.075,-0.035,-0.037,0.091
7.163,0.033,0.005,-0.009,0.035
7.173,0.085,-0.081,-0.058,0.131
7.183,-0.002,-0.013,-0.117,0.118
7.193,-0.012,-0.103,-0.096,0.142
7.203,0.018,-0.146,-0.044,0.154
7.213,0.017,-0.156,-0.05,0.165
7.223,0.092,-0.194,0.021,0.216
7.234,0.092,-0.113,-0.082,0.167
7.244,0.159,-0.051,-0.13,0.211
7.254,0.015,-0.091,0.119,0.151
7.264,-0.156,-0.057,-0.049,0.173
7.274,0.021,0.027,-0.002,0.034
7.284,0.06,-0.112,-0.023,0.129
7.294,0.089,0.119,-0.046,0.155
7.304,0.065,-0.007,-0.074,0.099
7.315,0.017,-0.081,-0.254,0.267
7.325,0.15,-0.081,-0.131,0.215
7.335,-0.014,-0.143,-0.033,0.147
7.345,0.031,-0.063,-0.246,0.256
7.355,-0.017,-0.232,-0.05,0.238
7.365,0.05,0.043,-0.008,0.066
7.375,0.144,-0.281,0.005,0.316
7.385,0.04,-0.051,-0.011,0.066
7.395,0.041,-0.144,0.015,0.15
7.406,-0.053,-0.107,0.062,0.134
7.416,0.032,-0.094,0.027,0.103
7.426,0.119,0.107,-0.036,0.164
7.436,0.035,-0.133,-0.058,0.15
7.446,0.031,0.03,-0.04,0.058
7.456,0.116,0.051,-0.066,0.143
7.466,0.031,-0.227,0.032,0.231
7.476,0.127,-0.087,-0.005,0.155
7.486,-0.027,0.083,-0.071,0.112
7.497,0.091,-0.14,0.049,0.174
7.507,0.149,0.063,-0.063,0.174
7.517,0.11,-0.032,-0.108,0.158
7.527,-0.062,-0.034,-0.042,0.082
7.537,0.012,-0.021,-0.098,0.101
7.547,0.035,0.002,0.026,0.044
7.557,0.11,-0.1,-0.097,0.178
7.567,-0.03,-0.042,-0.045,0.069
7.578,-0.012,0.01,0.029,0.033
7.588,-0.047,-0.004,-0.085,0.098
7.598,-0.0,0.012,-0.006,0.014
7.608,-0.026,-0.071,-0.102,0.127
7.618,0.145,0.039,-0.016,0.151
7.628,0.01,0.0,0.008,0.012
7.638,0.09,-0.135,-0.034,0.165
7.648,0.049,-0.049,-0.028,0.075
7.658,0.048,-0.076,0.002,0.09
7.669,0.012,-0.075,-0.048,0.09
7.679,0.093,-0.039,0.035,0.107
7.689,0.056,0.05,0.07,0.103
7.699,0.052,-0.047,-0.09,0.114
7.709,0.011,0.023,0.099,0.103
7.719,0.02,0.012,-0.045,0.05
7.729,0.081,-0.053,0.117,0.152
7.739,0.059,-0.017,-0.042,0.074
7.75,0.052,0.082,0.029,0.101
7.76,-0.001,0.027,0.03,0.04
7.77,0.16,0.06,-0.045,0.177
7.78,0.014,0.12,-0.012,0.122
7.79,0.041,0.055,0.084,0.109
7.8,0.031,-0.131,-0.038,0.14
7.81,0.159,0.046,-0.044,0.171
7.82,0.024,-0.024,-0.094,0.1
7.83,0.018,0.173,0.097,0.199
7.841,0.047,0.062,-0.045,0.09
7.851,-0.002,-0.016,0.074,0.075
7.861,0.046,0.079,-0.051,0.104
7.871,0.181,0.042,0.073,0.199
7.881,0.056,-0.1,0.049,0.125
7.891,0.053,0.108,-0.022,0.122
7.901,-0.007,0.008,-0.057,0.058
7.911,0.138,0.156,-0.05,0.214
7.922,0.151,0.034,-0.05,0.163
7.932,0.086,0.161,0.072,0.196
7.942,0.073,0.082,0.01,0.11
7.952,0.019,0.127,-0.078,0.151
7.962,0.056,0.012,-0.017,0.059
7.972,-0.019,0.081,-0.007,0.084
7.982,-0.037,-0.084,-0.147,0.173
7.992,-0.059,0.046,-0.01,0.076
8.002,0.054,-0.061,0.055,0.098
8.013,-0.054,-0.032,-0.004,0.063
8.023,-0.002,-0.01,0.025,0.027
8.033,0.023,0.116,0.042,0.125
8.043,0.086,0.053,-0.015,0.102
8.053,-0.009,0.069,0.061,0.092
8.063,0.091,0.054,0.113,0.155
8.073,0.08,0.156,-0.095,0.199
8.083,-0.042,0.071,-0.011,0.083
8.094,0.089,0.092,0.177,0.219
8.104,0.004,0.028,0.027,0.039
8.114,-0.01,0.167,0.013,0.168
8.124,0.002,0.175,-0.001,0.175
8.134,0.018,0.075,0.107,0.132
8.144,-0.007,0.033,-0.047,0.058
8.154,-0.034,-0.048,0.085,0.103
8.164,-0.029,0.013,0.002,0.032
8.174,0.023,-0.089,-0.031,0.097
8.185,0.004,0.012,0.007,0.015
8.195,0.045,0.115,0.021,0.125
8.205,0.015,0.084,-0.01,0.086
8.215,0.016,0.275,0.104,0.294
8.225,0.046,0.061,-0.025,0.08
8.235,0.094,0.056,0.037,0.116
8.245,0.096,0.178,0.066,0.213
8.255,0.088,-0.06,0.039,0.113
8.265,0.059,-0.023,0.085,0.105
8.276,0.131,0.15,0.001,0.198
8.286,0.031,0.082,0.076,0.116
8.296,0.023,0.085,0.079,0.118
8.306,0.137,0.025,0.102,0.173
8.316,-0.162,0.12,-0.097,0.224
8.326,-0.012,0.037,0.072,0.082
8.336,0.075,0.109,0.1,0.166
8.346,0.058,0.011,0.009,0.059
8.357,0.152,0.09,0.0,0.176
8.367,0.003,0.268,-0.009,0.268
8.377,-0.03,0.073,-0.032,0.085
8.387,-0.025,0.097,0.088,0.133
8.397,0.013,0.092,0.202,0.222
8.407,0.09,0.123,0.004,0.153
8.417,0.09,0.147,0.011,0.173
8.427,-0.012,0.131,0.046,0.139
8.437,0.005,0.134,-0.066,0.149
8.448,-0.047,0.098,-0.002,0.108
8.458,-0.042,0.121,0.043,0.135
8.468,0.05,0.096,-0.014,0.109
8.478,0.083,-0.031,0.133,0.159
8.488,-0.056,0.325,-0.041,0.332
8.498,-0.001,0.173,0.114,0.207
8.508,-0.031,0.037,0.154,0.161
8.518,0.035,0.134,0.079,0.16
8.529,-0.041,0.009,0.043,0.06
8.539,-0.134,0.077,0.071,0.171
8.549,0.04,-0.001,0.024,0.047
8.559,-0.039,0.114,-0.087,0.149
8.569,-0.033,-0.008,-0.013,0.037
8.579,0.004,0.15,0.056,0.16
8.589,-0.002,0.173,-0.009,0.174
8.599,0.003,0.053,0.029,0.06
8.609,-0.123,0.132,0.092,0.202
8.62,0.008,0.049,0.07,0.085
8.63,-0.141,0.161,0.134,0.252
8.64,0.019,0.065,0.081,0.106
8.65,0.039,0.183,0.086,0.206
8.66,-0.111,-0.025,0.012,0.114
8.67,-0.01,0.04,-0.031,0.051
8.68,0.033,0.031,0.034,0.057
8.69,-0.058,0.136,0.013,0.149
8.701,0.009,0.164,0.053,0.173
8.711,-0.2,0.142,-0.01,0.245
8.721,0.033,0.079,0.125,0.151
8.731,-0.032,-0.104,0.015,0.11
8.741,-0.05,0.123,0.041,0.139
8.751,0.024,0.182,0.066,0.195
8.761,0.068,0.334,0.147,0.371
8.771,-0.008,0.085,0.192,0.21
8.781,0.059,0.065,0.197,0.216
8.792,-0.131,0.144,-0.02,0.196
8.802,0.001,0.097,0.044,0.107
8.812,-0.047,0.22,0.031,0.227
8.822,-0.087,0.052,0.097,0.14
8.832,-0.156,0.097,0.093,0.206
8.842,-0.004,0.186,0.031,0.189
8.852,0.011,0.14,0.026,0.143
8.862,0.039,0.208,0.003,0.212
8.873,0.028,0.08,-0.113,0.141
8.883,-0.089,0.215,-0.017,0.234
8.893,0.034,-0.02,0.135,0.14
8.903,0.04,-0.017,0.177,0.182
8.913,-0.06,0.214,0.169,0.28
8.923,-0.043,0.112,0.139,0.183
8.933,-0.101,0.184,0.005,0.21
8.943,0.043,0.118,-0.007,0.126
8.953,-0.137,0.109,-0.051,0.182
8.964,-0.014,0.002,0.036,0.038
8.974,-0.083,0.105,0.083,0.157
8.984,-0.114,0.216,0.006,0.244
8.994,-0.16,0.11,0.107,0.222
9.004,-0.061,0.16,0.123,0.21
9.014,-0.124,0.156,0.045,0.204
9.024,-0.045,0.022,-0.016,0.052
9.034,0.058,0.171,0.175,0.251
9.044,-0.037,0.076,0.081,0.117
9.055,0.071,0.079,0.214,0.239
9.065,-0.108,0.267,0.085,0.3
9.075,-0.126,0.146,0.09,0.213
9.085,-0.111,0.046,0.012,0.121
9.095,-0.053,0.101,0.05,0.124
9.105,0.114,0.097,-0.03,0.153
9.115,-0.149,0.228,-0.015,0.273
9.125,-0.013,0.095,0.131,0.163
9.136,-0.092,0.267,0.06,0.289
9.146,-0.063,-0.014,0.05,0.082
9.156,-0.125,0.086,0.028,0.154
9.166,0.003,0.026,0.053,0.059
9.176,-0.053,0.046,0.159,0.174
9.186,0.015,0.046,0.09,0.102
9.196,-0.039,0.026,-0.003,0.047
9.206,-0.166,0.22,0.152,0.315
9.216,0.016,0.194,0.201,0.28
9.227,-0.17,0.111,0.115,0.233
9.237,-0.162,0.039,0.142,0.219
9.247,-0.104,0.021,0.165,0.197
9.257,-0.104,0.134,-0.036,0.173
9.267,0.035,0.097,0.21,0.234
9.277,-0.059,0.06,0.157,0.178
9.287,0.026,0.113,0.114,0.162
9.297,-0.083,0.139,0.071,0.177
9.308,-0.029,0.054,-0.014,0.063
9.318,-0.02,0.002,0.056,0.059
9.328,-0.006,-0.042,0.11,0.118
9.338,-0.075,0.082,0.002,0.111
9.348,-0.07,0.233,0.074,0.255
9.358,-0.065,-0.03,-0.004,0.072
9.368,-0.146,0.145,0.051,0.212
9.378,-0.051,0.001,-0.017,0.054
9.388,-0.069,0.015,-0.024,0.074
9.399,-0.01,0.125,0.101,0.161
9.409,-0.039,0.029,0.037,0.061
9.419,0.036,0.068,0.043,0.088
9.429,-0.04,0.065,0.032,0.083
9.439,-0.077,-0.009,0.267,0.278
9.449,-0.04,0.114,0.119,0.17
9.459,0.001,0.036,0.126,0.131
9.469,-0.148,-0.072,0.021,0.166
9.48,-0.084,-0.034,0.111,0.143
9.49,-0.083,-0.214,0.059,0.237
9.5,-0.016,0.038,0.02,0.046
9.51,-0.008,0.136,0.209,0.25
9.52,-0.033,-0.054,0.114,0.13
9.53,-0.187,0.075,0.11,0.23
9.54,-0.137,0.061,0.005,0.15
9.55,-0.052,-0.036,-0.016,0.065
9.56,-0.067,0.146,0.068,0.174
9.571,-0.036,-0.001,0.032,0.048
9.581,-0.064,0.18,0.114,0.222
9.591,0.057,-0.114,0.118,0.174
9.601,-0.172,-0.006,0.075,0.188
9.611,-0.015,0.001,0.128,0.129
9.621,0.017,0.008,0.083,0.085
9.631,0.01,0.067,0.008,0.068
9.641,0.016,0.279,0.054,0.285
9.652,0.025,0.042,0.077,0.092
9.662,-0.066,0.006,0.132,0.148
9.672,-0.095,-0.086,0.082,0.152
9.682,-0.15,-0.151,0.026,0.215
9.692,-0.049,0.092,0.133,0.169
9.702,-0.073,-0.048,0.092,0.127
9.712,0.044,0.203,0.172,0.27
9.722,-0.042,0.062,0.07,0.102
9.732,-0.086,0.018,-0.01,0.088
9.743,-0.095,0.02,0.145,0.174
9.753,0.097,0.019,0.021,0.101
9.763,-0.023,-0.071,0.082,0.111
9.773,-0.068,-0.157,0.073,0.186
9.783,-0.012,-0.063,0.063,0.09
9.793,0.095,-0.022,0.047,0.108
9.803,-0.042,-0.075,-0.057,0.103
9.813,0.024,-0.128,-0.012,0.13
9.823,0.055,-0.086,0.136,0.17
9.834,-0.129,0.054,0.086,0.164
9.844,-0.053,0.03,0.189,0.199
9.854,0.05,-0.018,-0.018,0.056
9.864,-0.055,0.013,0.052,0.076
9.874,0.013,-0.126,0.135,0.185
9.884,-0.056,-0.101,0.013,0.117
9.894,-0.037,-0.014,0.018,0.043
9.904,-0.043,-0.121,0.03,0.132
9.915,0.03,-0.034,0.019,0.049
9.925,0.005,-0.146,0.087,0.17
9.935,-0.0,-0.178,-0.076,0.194
9.945,0.145,0.011,0.163,0.218
9.955,0.1,0.032,-0.02,0.107
9.965,-0.122,-0.102,-0.102,0.189
9.975,-0.029,-0.175,0.045,0.183
9.985,0.144,-0.232,0.018,0.274
9.995,-0.035,0.091,0.031,0.102
10.006,0.126,-0.05,0.065,0.15
10.016,-0.024,-0.109,0.087,0.141
10.026,-0.012,-0.091,0.159,0.184
10.036,0.055,-0.216,-0.008,0.224
10.046,-0.001,-0.015,0.093,0.095
10.056,0.035,0.093,0.088,0.133
10.066,0.101,-0.131,-0.147,0.221
10.076,0.053,0.121,-0.022,0.134
10.087,0.017,-0.081,-0.054,0.099
10.097,0.109,0.061,0.066,0.141
10.107,0.063,-0.05,0.057,0.098
10.117,-0.033,-0.051,0.058,0.084
10.127,0.131,0.07,0.011,0.149
10.137,0.051,-0.016,0.017,0.056
10.147,0.001,-0.05,0.028,0.057
10.157,-0.107,-0.237,0.001,0.26
10.167,-0.067,-0.204,0.083,0.23
10.178,0.118,-0.048,-0.048,0.136
10.188,0.122,0.032,-0.028,0.129
10.198,0.023,-0.077,0.034,0.087
10.208,-0.087,-0.136,-0.001,0.161
10.218,-0.045,-0.237,-0.054,0.247
10.228,-0.077,-0.154,0.06,0.182
10.238,-0.078,-0.082,-0.019,0.114
10.248,0.144,-0.162,-0.039,0.22
10.259,0.147,-0.172,0.007,0.226
10.269,-0.043,-0.1,-0.044,0.117
10.279,0.025,0.019,0.015,0.035
10.289,-0.051,-0.043,-0.009,0.067
10.299,0.026,-0.076,-0.02,0.083
10.309,0.126,-0.085,-0.021,0.153
10.319,0.093,-0.057,0.083,0.137
10.329,0.078,-0.111,0.038,0.141
10.339,0.018,-0.136,-0.108,0.175
10.35,0.106,-0.045,0.072,0.136
10.36,0.07,-0.123,0.046,0.149
10.37,0.056,-0.201,0.04,0.213
10.38,0.026,0.009,0.07,0.075
10.39,0.053,-0.257,0.007,0.263
10.4,0.052,0.013,0.049,0.072
10.41,0.002,-0.069,-0.028,0.074
10.42,-0.011,-0.188,0.063,0.198
10.431,-0.024,-0.109,0.018,0.113
10.441,-0.019,-0.146,-0.095,0.175
10.451,0.026,-0.048,0.073,0.091
10.461,0.017,-0.05,-0.01,0.054
10.471,0.002,-0.077,-0.02,0.079
10.481,-0.002,-0.054,-0.034,0.064
10.491,0.057,-0.124,-0.03,0.14
10.501,0.123,0.026,0.011,0.126
10.511,0.04,-0.018,-0.075,0.087
10.522,0.037,-0.154,-0.117,0.197
10.532,-0.014,-0.052,-0.082,0.098
10.542,0.029,-0.059,0.018,0.068
10.552,0.115,-0.138,-0.021,0.181
10.562,0.106,-0.145,0.067,0.192
10.572,0.102,-0.021,-0.016,0.106
10.582,0.101,-0.12,0.046,0.163
10.592,0.071,-0.098,-0.062,0.136
10.602,0.069,-0.007,-0.045,0.083
10.613,0.06,0.083,-0.015,0.104
10.623,0.021,-0.162,-0.027,0.165
10.633,0.051,-0.137,-0.035,0.151
10.643,0.06,-0.114,-0.08,0.151
10.653,0.085,-0.112,-0.131,0.192
10.663,0.053,-0.09,0.023,0.107
10.673,0.174,-0.159,0.015,0.236
10.683,-0.025,-0.221,-0.066,0.232
10.694,0.094,0.02,0.003,0.096
10.704,0.046,-0.071,-0.036,0.092
10.714,0.049,-0.153,0.052,0.169
10.724,0.0,-0.085,-0.118,0.146
10.734,0.11,0.027,-0.036,0.119
10.744,0.088,-0.182,-0.043,0.207
10.754,0.099,-0.102,-0.018,0.144
10.764,0.06,-0.23,0.077,0.25
10.774,0.03,-0.128,-0.04,0.138
10.785,0.046,-0.069,0.02,0.085
10.795,0.076,-0.207,-0.044,0.225
10.805,-0.07,-0.133,0.041,0.156
10.815,0.102,-0.053,0.018,0.117
10.825,0.196,-0.07,-0.059,0.216
10.835,0.079,-0.209,-0.065,0.233
10.845,0.033,-0.086,-0.004,0.092
10.855,0.04,-0.071,-0.085,0.117
10.866,0.092,-0.106,-0.026,0.143
