time,ax,ay,az,atotal
0.002449,-0.0346,0.4941,0.172,0.524
0.002989,-0.0973,0.1962,0.6816,0.716
0.011935,-0.0292,0.0191,0.8231,0.824
0.023014,0.0509,-0.0476,0.6259,0.63
0.032092,0.0508,-0.0911,0.4284,0.441
0.043756,0.0664,-0.043,0.2411,0.254
0.051898,0.1352,-0.0101,0.032,0.139
0.061851,0.1045,0.0447,-0.2048,0.234
0.072105,-0.0896,0.1023,-0.5425,0.559
0.081923,-0.033,0.0232,-0.674,0.675
0.091973,-0.0325,-0.1887,-0.5134,0.548
0.102028,-0.0611,-0.4027,-0.7314,0.837
0.112295,0.0698,-0.4691,-0.934,1.047
0.124206,0.1383,-0.4952,-0.8729,1.013
0.132327,0.0461,-0.5466,-0.6981,0.888
0.144612,-0.1016,-0.5694,-0.5891,0.826
0.152021,-0.1924,-0.4734,-0.7722,0.926
0.163097,-0.1819,-0.4078,-1.0193,1.113
0.180844,-0.1096,-0.5004,-1.0711,1.187
0.182336,-0.0092,-0.6354,-0.7908,1.015
0.192234,0.0259,-0.6985,-0.4712,0.843
0.203758,0.0857,-0.7276,-0.4907,0.882
0.212104,0.1369,-0.6781,-0.6279,0.934
0.22201,0.1995,-0.5634,-0.502,0.781
0.232793,0.1935,-0.3154,-0.3642,0.519
0.250527,0.1377,0.049,0.2249,0.268
0.253337,0.0115,0.4451,0.7073,0.836
0.262019,0.1467,1.0325,0.859,1.351
0.274027,0.3416,1.8729,0.9832,2.143
0.281943,0.4687,2.5653,1.442,2.98
0.292091,0.5353,3.1597,2.0955,3.829
0.303172,0.6733,3.656,3.139,4.865
0.312049,1.184,4.2647,4.2037,6.104
0.322073,1.4337,4.8195,4.5666,6.792
0.33213,1.6357,5.4466,5.2194,7.719
0.347187,2.0166,6.0528,5.5682,8.468
0.352327,2.6253,6.6017,5.6387,9.07
0.362469,3.2842,7.1542,6.134,9.98
0.372019,3.7024,7.8243,6.8135,11.016
0.381962,3.7849,8.5387,7.4587,11.953
0.391964,3.489,9.3371,7.1557,12.27
0.402225,2.9752,10.1268,5.6586,11.976
0.412012,2.2308,10.8113,4.1733,11.802
0.422013,1.0739,11.2815,4.3551,12.141
0.432495,-0.1158,11.1305,6.2804,12.781
0.442369,-0.8225,9.5701,7.6581,12.285
0.454892,-1.0304,7.1067,7.1977,10.167
0.461851,-0.7583,3.9746,5.1257,6.53
0.471994,-0.1102,0.6709,3.006,3.082
0.482023,0.0162,-1.663,2.3226,2.857
0.492785,-0.9927,-2.9895,2.2013,3.843
0.502398,-2.611,-3.6973,1.1092,4.66
0.512479,-3.711,-4.2489,-1.0402,5.736
0.522099,-3.7618,-5.1924,-3.2457,7.187
0.535754,-2.9665,-6.5892,-4.7313,8.637
0.542801,-1.4537,-8.8245,-6.7431,11.201
0.556978,-0.9129,-9.1572,-7.2536,11.718
0.561978,-0.5087,-8.8011,-7.3628,11.486
0.576078,-0.4583,-8.348,-7.3577,11.137
0.594588,-0.5507,-8.0807,-7.6049,11.11
0.597242,-0.5434,-7.9208,-7.9136,11.21
0.606499,-0.5331,-7.7807,-8.088,11.236
0.612189,-0.4698,-7.7448,-8.0304,11.166
0.62243,-0.3858,-7.7831,-7.6973,10.953
0.639122,-0.3615,-7.9461,-7.1106,10.669
0.6434,-0.1787,-8.0213,-6.7299,10.472
0.667424,0.1586,-8.3344,-6.7698,10.739
0.671198,0.4512,-8.8007,-6.7252,11.085
0.674131,0.5752,-9.0518,-6.0896,10.925
0.682316,0.5965,-9.1804,-5.3846,10.66
0.692227,0.4922,-9.1852,-4.9559,10.448
0.702231,0.3111,-9.1718,-4.7567,10.337
0.712919,0.1216,-9.2266,-4.807,10.404
0.722407,0.0541,-9.1616,-5.447,10.659
0.738276,0.0638,-9.0052,-5.9191,10.777
0.742498,0.1778,-8.6481,-6.0367,10.548
0.765879,0.2094,-8.2191,-5.6398,9.97
0.768766,0.0814,-7.9703,-5.0682,9.446
0.772476,0.0298,-7.7659,-4.4909,8.971
0.786362,-0.3885,-6.9215,-3.54,7.784
0.792749,-1.1611,-6.2247,-3.2763,7.129
0.802131,-1.7809,-5.0553,-2.9321,6.109
0.81441,-1.846,-3.481,-2.3241,4.575
0.822255,-1.5829,-1.5528,-0.9359,2.407
0.832458,-0.8406,0.7464,0.8561,1.413
0.842337,0.0109,3.3181,1.0489,3.48
0.854802,1.1473,6.6521,-0.3441,6.759
0.883433,3.4459,10.377,-1.9127,11.1
0.88638,5.0248,14.6484,-2.6413,15.71
0.88876,4.9489,18.6084,0.5683,19.264
0.892562,4.2621,21.277,7.7216,23.033
0.902241,3.9582,22.3304,16.8333,28.243
0.920436,2.8288,22.7647,25.7967,34.521
0.924581,0.3259,23.0265,32.5168,39.846
0.932371,-2.418,23.0137,32.5825,39.964
0.942087,-5.3209,23.1304,28.1267,36.803
0.95414,-5.761,22.5356,22.962,32.685
0.975512,-4.0343,21.2491,18.78,28.644
0.980539,-2.1841,19.0874,14.8981,24.312
0.98463,-0.3965,15.9555,10.0576,18.865
0.992718,1.0321,12.3514,5.57,13.588
1.00234,1.4192,8.7504,3.2455,9.44
1.013324,-0.686,1.4531,3.6952,4.029
1.022123,-1.7562,-0.8027,3.3248,3.845
1.033031,-2.2213,-2.5992,1.5044,3.735
1.043585,-2.2996,-3.5546,-1.6702,4.551
1.054501,-1.5538,-4.3456,-4.5343,6.47
1.06474,-0.5808,-5.598,-6.222,8.39
1.073257,-0.0506,-6.8102,-6.9658,9.742
1.082343,0.1845,-7.5722,-7.3831,10.577
1.092267,0.4672,-8.0103,-7.3032,10.85
1.102292,0.7797,-8.4109,-7.2021,11.101
1.116852,0.8878,-8.6398,-7.1131,11.226
1.122445,0.7459,-8.429,-6.7615,10.832
1.132324,0.3579,-8.2206,-6.4887,10.479
1.151993,-0.1883,-8.0923,-6.2067,10.2
1.155022,-0.3697,-7.8025,-5.6232,9.625
1.178879,-0.2903,-7.757,-4.8784,9.168
1.183001,-0.2171,-8.3185,-4.6279,9.522
1.194321,0.0192,-8.6245,-5.146,10.043
1.202142,0.0706,-8.589,-5.1483,10.014
1.212285,-0.0702,-8.5922,-5.0265,9.955
1.222128,-0.1212,-8.8762,-5.2532,10.315
1.23204,-0.0815,-9.1665,-5.6514,10.769
1.252331,0.0227,-9.2885,-6.1678,11.15
1.254515,0.129,-8.965,-6.5029,11.076
1.273085,-0.2547,-8.912,-6.2275,10.875
1.275965,-0.403,-9.2308,-6.7077,11.418
1.293011,-0.2466,-9.3636,-7.3168,11.886
1.295553,-0.1435,-9.2093,-7.4225,11.829
1.302313,-0.2541,-8.8472,-7.0548,11.318
1.312291,-0.2535,-8.8555,-6.6433,11.073
1.322154,-0.1031,-8.9697,-6.4442,11.045
1.332897,-0.0919,-8.7553,-6.3331,10.806
1.351877,-0.4604,-7.9282,-6.0846,10.005
1.354436,-0.7376,-6.8421,-5.163,8.603
1.363512,-0.9519,-6.1854,-3.9962,7.425
1.372166,-0.916,-5.9667,-2.837,6.67
1.382204,-0.5136,-5.5965,-1.9876,5.961
1.392379,0.2015,-4.3744,-1.2177,4.545
1.402446,0.7015,-2.2595,0.0839,2.367
1.412077,0.8254,0.7839,1.0004,1.515
1.421958,1.3126,4.361,1.0611,4.676
1.432116,2.499,7.9735,0.0609,8.356
1.454282,4.3405,12.0907,-1.6116,12.947
1.457326,5.2185,17.71,-2.3481,18.612
1.462253,5.6052,23.3251,-2.1654,24.087
1.473861,5.8075,26.6417,2.2656,27.361
1.482226,3.9945,24.6474,24.4619,34.955
1.494022,1.7545,24.9065,33.234,41.568
1.502118,-1.742,26.3188,33.7881,42.864
1.512358,-5.511,28.2096,30.038,41.574
1.53002,-6.8029,29.5674,20.8484,36.813
1.533663,-5.755,29.3312,14.2241,33.102
1.553974,-3.0118,26.2537,10.1193,28.297
1.557993,-0.0271,20.7366,5.2787,21.398
1.562212,1.3216,14.9288,1.2989,15.043
1.573855,1.6655,8.7188,1.1846,8.955
1.582609,1.992,1.8998,3.7175,4.626
1.592333,1.3212,-4.0047,4.9347,6.491
1.602698,-0.1941,-7.6498,3.1213,8.264
1.613343,-1.5532,-9.0241,-1.203,9.235
1.62979,-2.0671,-9.7712,-5.5201,11.411
1.633201,-1.9941,-10.5257,-7.6401,13.158
1.654646,-1.5848,-11.2377,-8.1053,13.946
1.657695,-1.1332,-11.6924,-8.3718,14.425
1.662024,-0.7489,-11.8107,-9.65,15.27
1.674733,-0.2206,-11.8912,-11.0215,16.215
1.681975,0.1175,-12.1518,-11.3828,16.651
1.694386,0.2269,-12.4422,-10.056,15.999
1.70229,0.3035,-12.4579,-8.6514,15.17
1.712725,0.7453,-11.8074,-8.1289,14.354
1.727902,0.9361,-11.5235,-7.4757,13.768
1.732747,1.07,-11.2301,-6.2465,12.895
1.754992,0.8997,-10.6344,-4.8555,11.725
1.758439,0.0674,-9.5146,-4.1694,10.388
1.762361,-0.6833,-9.5097,-4.6181,10.594
1.772319,-0.7956,-7.6636,-5.134,9.259
1.782294,-0.6611,-7.6976,-4.8978,9.148
1.79241,-0.5759,-8.0001,-4.5711,9.232
1.804432,-0.5959,-8.0249,-4.5904,9.264
1.812277,-0.7492,-7.8607,-4.7683,9.224
1.82235,-0.6909,-7.7648,-4.9842,9.253
1.832507,-0.4025,-7.8211,-5.2349,9.42
1.843697,-0.0687,-8.0434,-5.4531,9.718
1.870576,0.1398,-8.1004,-5.408,9.741
1.873181,0.0317,-7.8041,-5.0183,9.278
1.874768,-0.3567,-7.3566,-4.567,8.666
1.890558,-0.6677,-6.9956,-4.1314,8.152
1.89345,-0.5707,-7.197,-3.7868,8.152
1.904136,-0.2721,-7.7358,-3.8295,8.636
1.919044,-0.0057,-8.0805,-4.0212,9.026
1.92228,-0.1601,-7.9147,-3.7086,8.742
1.933256,-0.7293,-7.3253,-2.648,7.823
1.951898,-1.2577,-6.7372,-1.5085,7.018
1.954468,-1.9993,-4.8811,-0.6809,5.318
1.987688,-1.9883,-3.4999,0.3799,4.043
1.990991,-0.6509,-1.5194,1.2155,2.052
1.993463,1.3006,1.5175,1.0073,2.238
1.994791,2.127,5.5393,0.8178,5.99
2.003649,2.6861,9.7011,1.73,10.214
2.019486,4.1519,14.3685,3.9383,15.466
2.022588,5.2691,19.568,7.0646,21.461
2.03554,5.1082,24.6109,12.8396,28.225
2.052124,4.1727,28.6556,19.9689,35.175
2.053744,2.7479,30.8519,25.4271,40.074
2.080742,1.8702,30.9153,27.5338,41.441
2.08408,1.151,30.8491,26.3,40.555
2.086026,0.7478,30.7912,23.783,38.914
2.102973,0.8534,30.0202,20.5188,36.373
2.105224,1.5665,27.7354,15.918,32.017
2.119012,1.5829,24.9934,9.6277,26.83
2.122462,0.8335,21.74,3.6879,22.066
2.134684,0.257,16.912,1.4477,16.976
2.142528,-0.168,10.7505,2.6926,11.084
2.157938,-0.1302,4.1247,4.1551,5.856
2.162418,-0.2793,-1.8852,3.9811,4.414
2.189131,-0.0671,-6.0754,1.7534,6.324
2.19231,1.6676,-9.9865,-2.2006,10.361
2.194278,2.2441,-11.8326,-1.9544,12.201
2.202207,2.1771,-12.8738,-2.6467,13.322
2.212308,1.9107,-12.7202,-4.0273,13.479
2.222412,1.3401,-12.1836,-5.2197,13.322
2.238715,0.763,-11.9266,-6.2892,13.505
2.244,0.003,-11.222,-6.8923,13.17
2.269516,-0.7455,-9.9586,-6.767,12.063
2.272961,-1.2984,-9.0711,-6.6792,11.339
2.27539,-1.8773,-8.6026,-6.0928,10.708
2.288518,-2.2396,-8.773,-5.428,10.557
2.292278,-2.1741,-9.0768,-5.0566,10.615
2.305407,-1.8017,-9.3088,-4.7812,10.619
2.31231,-1.476,-9.632,-4.4013,10.692
2.322263,-1.087,-9.9337,-4.3017,10.88
2.341173,-0.7299,-10.0267,-4.3478,10.953
2.344413,-0.6772,-9.7105,-4.1782,10.593
2.374041,-1.102,-9.2162,-4.1177,10.154
2.377702,-1.4912,-8.7337,-4.3519,9.871
2.38152,-1.8385,-8.4605,-4.4612,9.74
2.384527,-1.8302,-8.5519,-4.3479,9.767
2.392849,-1.7066,-8.6954,-4.0434,9.74
2.40482,-1.6999,-8.8405,-4.1069,9.895
2.412453,-1.6772,-9.0905,-5.2024,10.607
2.422144,-1.1388,-9.2169,-5.2312,10.659
2.438151,-1.0036,-9.1365,-4.8575,10.396
2.442164,-1.0014,-9.0197,-4.6776,10.21
2.472414,-0.9781,-9.0,-4.7092,10.205
2.474951,-0.8718,-9.2368,-4.6232,10.366
2.477822,-0.7216,-9.5967,-4.2865,10.535
2.486439,-0.5903,-9.8744,-4.0634,10.694
2.492836,-0.8476,-9.8414,-3.5701,10.503
2.502239,-1.5056,-9.6463,-2.8012,10.157
2.517502,-2.2009,-9.509,-2.3489,10.039
2.522044,-2.6946,-9.4156,-2.6086,10.135
2.532047,-3.1019,-9.4071,-2.542,10.226
2.542073,-3.2781,-9.3903,-1.8232,10.112
2.553987,-3.3511,-9.3953,-1.0604,10.031
2.577768,-3.4178,-9.6105,-0.3337,10.206
2.58117,-3.0893,-9.3958,0.4255,9.9
2.584007,-2.4827,-7.0751,-0.0637,7.498
2.592351,-1.1636,-2.4713,-2.4454,3.666
2.602579,2.0297,5.4755,-6.8186,8.977
2.616163,5.2991,16.2649,-11.2414,20.469
2.622171,5.0059,25.1693,-10.1004,27.578
2.632472,2.7592,29.4009,-0.4977,29.534
2.642265,2.5827,30.3705,13.0513,33.157
2.653806,6.5091,30.2269,34.2383,46.133
2.678731,6.2646,30.6372,34.5433,46.595
2.68251,4.0374,30.6846,34.4365,46.3
2.68577,1.3889,30.7222,34.3526,46.107
2.692214,-0.2724,30.7491,31.6318,44.115
2.702199,-1.5561,30.7301,22.3744,38.044
2.712786,-2.0158,28.7575,12.5761,31.452
2.722018,-1.4846,22.5672,4.4903,23.057
2.732749,-0.6011,14.709,-0.3341,14.725
2.7423,0.6187,6.0044,-2.1925,6.422
2.752371,1.5377,-1.3821,-3.5786,4.133
2.779833,2.2165,-7.1993,-4.2646,8.656
2.782987,2.4585,-11.2488,-5.6929,12.845
2.785662,2.2648,-13.6542,-7.3477,15.67
2.798947,1.5468,-14.3831,-8.0652,16.562
2.803898,0.482,-13.8747,-8.0386,16.042
2.818039,-0.7868,-13.2421,-8.1685,15.579
2.82298,-1.884,-12.2137,-9.2201,15.419
2.832409,-2.3688,-10.855,-10.0768,15.0
2.849255,-2.3963,-9.8969,-9.6963,14.061
2.853022,-2.1036,-9.2781,-8.0688,12.475
2.876979,-1.5767,-8.9612,-6.788,11.352
2.880546,-1.0644,-8.9867,-6.3433,11.051
2.883651,-0.8175,-9.5555,-4.4713,10.582
2.893185,-0.6022,-10.2305,-3.3061,10.768
2.902378,-0.1417,-10.577,-2.3149,10.828
2.911983,0.101,-10.4514,-2.1237,10.665
2.921967,0.2043,-10.1453,-2.5389,10.46
2.933591,0.0201,-9.7246,-3.3412,10.283
2.947469,-0.4931,-9.0011,-3.5205,9.678
2.953025,-0.9231,-8.5555,-3.2085,9.184
2.975046,-1.2345,-8.3386,-3.3021,9.053
2.97803,-1.262,-8.079,-3.4824,8.888
2.982411,-1.1811,-8.1491,-3.4061,8.911
2.995993,-1.3493,-8.4017,-3.2598,9.112
3.002117,-1.3665,-8.4675,-3.3809,9.219
3.013084,-1.2428,-8.3051,-3.8119,9.222
3.022641,-1.17,-8.1872,-4.4175,9.376
3.032235,-1.289,-7.9712,-4.7525,9.369
3.047607,-1.5124,-7.7944,-4.5274,9.14
3.054855,-1.732,-7.7346,-4.0983,8.923
3.075889,-1.9499,-7.7327,-3.9873,8.916
3.07834,-1.9856,-7.7858,-4.4674,9.193
3.082735,-1.7963,-7.8206,-5.4672,9.71
3.092944,-1.4487,-7.698,-5.9224,9.82
3.102458,-1.4199,-7.8092,-5.0184,9.391
3.112438,-1.3207,-7.9353,-2.5429,8.437
3.124244,-2.0425,-7.6199,-3.1948,8.511
3.132647,-2.3287,-7.0606,-3.9841,8.435
3.142128,-2.2651,-5.4898,-3.008,6.657
3.152737,-2.3151,-3.5193,-0.304,4.223
3.162952,-1.4506,-0.7571,1.6256,2.306
3.197131,1.2539,3.2872,2.2542,4.178
3.200406,4.2527,8.4927,1.777,9.663
3.202998,6.3442,14.5174,0.0578,15.843
3.206044,7.3662,20.2873,-0.4021,21.587
3.214762,7.8152,23.7494,4.6908,25.438
3.234048,8.967,24.4114,14.0405,29.554
3.238581,10.648,24.5264,19.5822,33.142
3.244977,11.2905,26.0833,20.1857,34.861
3.252911,10.2807,28.3404,20.3948,36.398
3.265504,8.2846,29.641,22.0541,37.863
3.295404,4.2907,30.4127,22.18,37.885
3.298305,0.1433,30.3916,19.4048,36.059
3.301018,-2.3696,30.2996,15.5107,34.121
3.30402,-2.4316,27.5858,10.9726,29.787
3.312403,-0.8454,22.3388,6.1966,23.198
3.323705,1.4482,16.1818,1.8438,16.351
3.332416,3.6791,9.0902,0.1015,9.807
3.342358,4.62,2.1854,1.0603,5.22
3.360853,0.8293,-6.6711,3.4578,7.56
3.364278,-1.2856,-8.1056,1.0255,8.271
3.390858,-2.7433,-8.6173,-1.6011,9.184
3.394363,-3.8086,-8.9759,-3.0422,10.214
3.396837,-3.8785,-9.6176,-4.4245,11.275
3.402209,-2.2972,-10.9352,-6.5421,12.948
3.412236,-0.33,-12.6734,-7.7819,14.876
3.422383,0.5314,-13.476,-8.0687,15.716
3.432031,0.5499,-12.8325,-7.2271,14.738
3.442633,-0.0466,-12.0942,-5.9481,13.478
3.465365,-0.2191,-11.6039,-4.6464,12.501
3.468289,-0.2908,-11.467,-3.5799,12.016
3.48612,-0.4683,-11.0977,-2.6143,11.411
3.488407,-1.4551,-9.7706,-2.2089,10.122
3.492416,-2.7021,-8.3657,-2.3643,9.104
3.503437,-3.108,-7.7765,-2.1162,8.638
3.512374,-2.8853,-7.9602,-2.4433,8.812
3.522318,-2.3379,-8.6628,-2.7953,9.398
3.53225,-1.9951,-8.8699,-2.3131,9.381
3.544046,-1.8279,-8.8369,-2.0466,9.253
3.554295,-2.0924,-8.6781,-1.8877,9.124
3.577133,-2.2851,-8.3827,-2.0433,8.926
3.581016,-2.1103,-8.2509,-2.6041,8.906
3.584686,-2.162,-8.584,-3.0931,9.377
3.592072,-2.2511,-9.2918,-3.0903,10.048
3.602699,-2.1363,-9.4935,-3.1158,10.218
3.612502,-2.2032,-9.803,-3.2944,10.574
3.622425,-1.5517,-9.9529,-4.7283,11.128
3.632641,-0.0744,-10.3055,-5.8763,11.863
3.64518,1.4051,-10.7785,-5.3368,12.109
3.661123,-0.3316,-10.5668,-2.6107,10.89
3.66272,-0.8033,-9.7908,-1.7277,9.974
3.684189,-0.5124,-9.2443,-2.4032,9.565
3.685526,-0.4947,-9.5034,-2.9798,9.972
3.692181,-1.1537,-9.0911,-1.8307,9.345
