time,ax,ay,az,atotal
0.0,0.39,-0.56,-0.34,0.76
0.01,0.49,-0.68,-0.63,1.05
0.02,0.25,-0.56,-0.42,0.75
0.03,-0.05,-0.37,-0.14,0.4
0.041,-0.31,-0.25,-0.12,0.42
0.05,-0.47,-0.25,-0.24,0.59
0.06,-0.47,-0.28,-0.5,0.74
0.071,-0.37,-0.42,-0.65,0.86
0.081,-0.04,-0.42,-0.71,0.83
0.091,0.12,-0.44,-0.74,0.87
0.101,0.15,-0.55,-0.88,1.05
0.111,0.15,-0.73,-0.85,1.13
0.121,0.16,-0.9,-0.78,1.2
0.131,0.11,-1.0,-0.75,1.25
0.141,0.07,-1.09,-0.69,1.29
0.151,0.09,-1.18,-0.62,1.34
0.161,0.19,-1.27,-0.57,1.41
0.171,0.26,-1.33,-0.56,1.47
0.181,0.3,-1.29,-0.42,1.39
0.192,0.2,-1.31,-0.41,1.39
0.202,0.15,-1.37,-0.29,1.41
0.212,0.19,-1.34,-0.2,1.37
0.222,0.2,-1.15,-0.01,1.17
0.232,0.27,-0.75,0.51,0.95
0.242,0.43,-0.46,0.69,0.93
0.252,0.38,-0.49,0.5,0.8
0.262,0.51,-0.16,1.34,1.45
0.272,0.19,-0.57,1.57,1.68
0.282,-0.23,-0.86,1.82,2.02
0.292,-0.4,-0.32,2.52,2.58
0.302,-0.94,-0.1,3.21,3.34
0.312,-1.44,2.54,0.22,2.93
0.323,-1.39,4.44,-0.72,4.71
0.332,-0.15,4.32,2.38,4.93
0.343,0.4,2.32,3.52,4.23
0.353,-0.57,2.39,2.9,3.8
0.363,-1.06,3.21,2.4,4.15
0.373,-1.38,3.14,3.39,4.83
0.383,-1.4,3.5,4.2,5.64
0.393,-1.29,3.41,4.66,5.92
0.403,-0.78,2.86,4.68,5.53
0.413,0.09,2.58,3.72,4.53
0.423,-0.17,2.3,2.74,3.58
0.433,-0.36,1.89,2.31,3.0
0.443,0.04,1.4,2.24,2.64
0.453,1.14,1.51,1.64,2.5
0.463,1.74,1.76,0.33,2.5
0.473,0.47,2.29,-0.38,2.37
0.484,-1.55,2.42,-0.55,2.93
0.494,-2.52,2.25,-1.51,3.7
0.504,-1.37,1.32,-1.55,2.45
0.514,0.96,0.31,-0.62,1.18
0.524,0.82,-0.62,-1.43,1.76
0.534,0.7,-0.97,-1.76,2.13
0.544,1.3,-0.98,-1.7,2.35
0.554,1.43,-1.38,-1.9,2.74
0.564,1.14,-1.88,-1.65,2.75
0.574,1.08,-2.32,-1.87,3.17
0.584,1.49,-2.43,-1.97,3.47
0.594,2.04,-2.55,-1.94,3.8
0.604,2.42,-2.97,-2.43,4.54
0.614,3.15,-3.02,-2.26,4.92
0.625,3.89,-2.7,-2.0,5.14
0.635,3.1,-3.65,-2.63,5.46
0.645,2.34,-4.05,-3.0,5.56
0.655,1.82,-3.78,-3.16,5.25
0.665,1.74,-3.39,-3.15,4.94
0.675,1.57,-3.43,-2.7,4.64
0.685,1.29,-3.55,-2.08,4.32
0.695,0.9,-3.81,-2.1,4.45
0.705,0.63,-3.35,-1.98,3.94
0.715,0.98,-1.7,-1.13,2.26
0.725,0.89,0.15,0.09,0.91
0.735,-0.06,3.81,2.0,4.3
0.746,-0.84,3.4,3.67,5.07
0.755,-1.49,2.17,5.66,6.24
0.766,-1.36,4.09,6.37,7.69
0.776,-0.5,3.99,6.02,7.24
0.786,-0.37,4.28,5.0,6.59
0.796,-1.01,5.11,3.53,6.29
0.806,-1.58,5.36,4.16,6.97
0.816,-1.46,5.56,5.55,7.99
0.826,-0.79,5.87,5.83,8.31
0.836,-1.08,5.35,5.88,8.02
0.846,-2.11,4.38,4.38,6.54
0.856,-3.5,2.93,4.01,6.08
0.866,-3.67,0.24,4.56,5.86
0.877,-2.4,2.72,4.2,5.55
0.886,-1.66,3.29,2.01,4.2
0.897,-2.0,0.13,-0.63,2.1
0.907,-2.01,-1.69,-1.81,3.19
0.917,-0.78,-2.39,-2.36,3.45
0.927,1.05,-4.04,-3.59,5.5
0.937,1.34,-5.36,-4.94,7.41
0.947,1.1,-6.07,-6.59,9.03
0.957,1.07,-6.77,-6.93,9.75
0.967,1.33,-7.17,-5.95,9.41
0.977,1.3,-7.29,-5.29,9.1
0.987,0.88,-7.22,-5.67,9.22
0.997,0.57,-7.09,-6.57,9.68
1.007,0.51,-7.22,-7.23,10.23
1.017,0.72,-7.34,-6.97,10.15
1.028,1.04,-6.53,-6.5,9.28
1.037,0.57,-6.16,-6.52,8.99
1.048,-0.28,-5.74,-5.92,8.25
1.058,-1.12,-4.11,-4.15,5.95
1.068,-1.67,-0.31,-1.8,2.47
1.078,-1.93,4.9,-0.46,5.29
1.088,-2.05,8.44,-1.65,8.84
1.098,-2.09,10.71,-1.71,11.04
1.108,-1.96,11.42,1.76,11.72
1.118,-2.44,10.87,3.73,11.74
1.128,-2.66,11.3,4.72,12.53
1.139,-2.2,10.87,5.29,12.28
1.148,-1.52,9.89,5.82,11.58
1.159,-1.11,8.44,6.67,10.82
1.168,-0.58,6.69,7.32,9.93
1.178,-0.26,5.12,7.84,9.37
1.189,-0.73,3.77,7.91,8.79
1.199,-1.1,1.91,6.78,7.13
1.209,-1.47,0.26,5.82,6.01
1.219,-1.81,-1.36,4.85,5.35
1.229,-1.42,-3.38,3.07,4.78
1.239,-0.89,-4.98,1.16,5.19
1.249,-0.27,-5.72,-0.5,5.75
1.259,0.46,-6.13,-1.69,6.37
1.269,0.98,-5.91,-2.93,6.67
1.279,1.19,-5.28,-3.99,6.72
1.29,1.28,-4.69,-4.82,6.84
1.3,1.23,-4.57,-5.51,7.27
1.31,1.0,-4.82,-6.38,8.06
1.319,0.68,-5.42,-7.25,9.08
1.33,0.63,-6.25,-7.88,10.08
1.34,0.58,-6.52,-8.4,10.65
1.35,0.26,-7.31,-8.69,11.36
1.36,0.31,-9.19,-8.03,12.21
1.37,0.12,-8.6,-7.6,11.47
1.38,-0.47,-7.35,-7.75,10.7
1.39,-0.64,-6.15,-7.11,9.43
1.4,-0.79,-4.81,-6.89,8.44
1.41,-1.25,-3.4,-6.01,7.02
1.42,-1.4,-1.82,-4.9,5.41
1.43,-1.59,-0.08,-4.13,4.43
1.441,-1.78,2.21,-2.79,3.98
1.451,-2.06,4.87,-1.07,5.39
1.461,-2.28,8.32,0.63,8.65
1.471,-2.19,11.28,1.44,11.58
1.481,-1.29,12.32,1.21,12.45
1.491,0.02,12.4,1.87,12.54
1.501,0.8,12.68,4.2,13.38
1.511,0.88,12.21,6.26,13.75
1.521,1.43,10.75,7.42,13.15
1.531,2.14,9.83,8.78,13.36
1.541,2.26,8.89,10.06,13.62
1.553,2.2,7.22,10.48,12.91
1.561,2.2,4.65,9.99,11.24
1.571,2.3,1.73,8.82,9.28
1.581,2.32,-0.8,7.3,7.7
1.592,2.23,-2.51,5.78,6.68
1.602,2.23,-3.43,3.99,5.72
1.612,2.49,-4.04,2.06,5.17
1.622,2.75,-4.4,0.44,5.2
1.632,2.8,-4.52,-1.04,5.42
1.642,2.55,-4.6,-2.37,5.77
1.652,2.04,-4.71,-3.32,6.11
1.662,1.48,-4.95,-4.16,6.63
1.672,1.09,-5.33,-5.39,7.66
1.682,0.82,-5.79,-6.53,8.77
1.692,0.63,-6.46,-7.38,9.83
1.702,0.32,-6.99,-8.06,10.67
1.712,-0.12,-6.44,-8.45,10.63
1.722,-0.86,-6.62,-8.75,11.0
1.733,-1.18,-6.2,-8.42,10.52
1.743,-1.55,-4.74,-8.49,9.84
1.753,-2.05,-3.49,-8.65,9.55
1.763,-2.42,-2.88,-7.66,8.53
1.773,-2.47,-2.35,-6.14,7.03
1.783,-2.8,-1.31,-4.27,5.27
1.793,-3.18,0.76,-1.58,3.63
1.803,-3.32,3.21,0.71,4.68
1.813,-2.96,5.08,2.49,6.38
1.823,-2.32,6.85,4.19,8.36
1.833,-1.69,7.86,5.7,9.85
1.844,-1.38,8.4,7.12,11.1
1.854,-1.37,9.13,8.26,12.39
1.864,-1.33,9.22,8.81,12.82
1.874,-1.42,9.41,9.36,13.35
1.884,-1.45,9.34,10.07,13.81
1.894,-0.76,8.43,10.34,13.36
1.904,0.32,6.94,10.25,12.39
1.914,1.16,4.76,10.62,11.7
1.924,1.68,2.47,10.49,10.91
1.934,1.8,-0.05,9.21,9.39
1.944,1.93,-2.56,7.29,7.97
1.954,2.09,-4.59,4.93,7.05
1.964,2.13,-5.96,2.5,6.81
1.974,2.01,-7.11,0.25,7.39
1.984,1.96,-8.02,-2.29,8.57
1.995,1.74,-8.59,-4.6,9.9
2.005,1.27,-8.78,-6.35,10.91
2.015,0.71,-9.37,-8.07,12.38
2.025,0.23,-9.26,-9.54,13.3
2.035,-0.08,-9.91,-10.7,14.59
2.045,-0.46,-10.08,-11.13,15.02
2.055,-1.15,-9.51,-11.47,14.95
2.065,-2.07,-8.91,-11.64,14.81
2.075,-2.71,-8.26,-11.18,14.16
2.085,-3.41,-7.13,-10.9,13.46
2.095,-4.03,-5.42,-10.6,12.57
2.105,-4.16,-3.64,-9.86,11.3
2.115,-4.2,-1.97,-8.66,9.83
2.125,-4.1,-0.3,-7.01,8.12
2.136,-3.48,1.57,-5.23,6.48
2.146,-2.98,4.08,-2.75,5.75
2.156,-2.27,7.0,-0.92,7.42
2.166,-1.43,7.37,0.25,7.51
2.176,-0.68,7.04,3.3,7.8
2.186,-0.3,7.31,6.21,9.59
2.196,-0.53,8.92,8.94,12.64
2.206,-0.44,10.75,10.74,15.2
2.216,0.2,12.03,12.2,17.13
2.226,1.15,10.72,13.44,17.23
2.236,2.15,8.93,14.38,17.06
2.246,2.58,7.22,14.79,16.66
2.257,2.45,5.4,14.28,15.46
2.267,1.96,3.16,12.75,13.28
2.277,1.53,0.51,10.56,10.68
2.287,1.6,-1.91,7.69,8.08
2.297,2.0,-4.03,4.11,6.09
2.307,2.35,-5.54,1.3,6.15
2.317,2.51,-7.1,-1.03,7.6
2.327,2.84,-8.1,-2.89,9.06
2.337,2.7,-8.66,-4.37,10.07
2.347,2.36,-8.63,-5.83,10.67
2.357,1.92,-8.38,-7.42,11.35
2.367,1.3,-8.77,-8.76,12.47
2.377,0.89,-8.93,-9.37,12.98
2.387,0.46,-9.35,-10.01,13.7
2.398,-0.12,-9.69,-10.23,14.09
2.407,-0.81,-9.71,-10.13,14.05
2.418,-1.53,-9.38,-9.94,13.75
2.428,-2.21,-8.71,-9.49,13.07
2.438,-2.79,-7.32,-8.96,11.9
2.448,-3.17,-5.22,-8.59,10.54
2.458,-3.46,-2.56,-7.87,8.97
2.468,-3.47,-0.38,-6.54,7.41
2.478,-3.17,1.39,-4.82,5.93
2.488,-2.78,2.82,-2.89,4.91
2.498,-2.33,4.18,-0.85,4.86
2.508,-1.82,5.47,0.87,5.83
2.518,-1.48,6.58,2.45,7.17
2.528,-1.29,7.81,3.99,8.87
2.539,-1.42,9.09,5.88,10.92
2.549,-1.65,10.83,7.76,13.42
2.559,-1.84,12.68,8.87,15.58
2.569,-1.31,13.09,9.34,16.13
2.579,-0.01,12.61,9.42,15.74
2.589,1.56,11.78,9.1,14.97
2.599,2.68,10.29,9.12,14.01
2.609,3.19,8.49,9.44,13.09
2.619,3.33,6.08,8.87,11.26
2.629,3.17,3.04,7.59,8.77
2.639,2.64,-0.21,5.8,6.38
2.649,2.28,-3.34,3.94,5.65
2.66,2.32,-6.05,2.15,6.83
2.67,2.3,-7.8,0.5,8.15
2.68,2.33,-8.48,-1.36,8.9
2.69,2.36,-8.57,-3.14,9.43
2.7,2.3,-8.24,-4.62,9.72
2.71,2.21,-8.2,-5.97,10.38
2.72,2.1,-8.63,-7.18,11.42
2.73,1.96,-8.42,-8.04,11.81
2.74,1.54,-8.88,-8.66,12.49
2.75,0.91,-10.1,-8.69,13.36
2.76,0.05,-9.95,-8.23,12.91
2.77,-0.9,-9.55,-8.21,12.62
2.78,-1.75,-8.97,-8.31,12.35
2.79,-2.45,-7.92,-8.14,11.62
2.8,-3.19,-6.65,-7.78,10.73
2.81,-3.89,-5.23,-7.06,9.61
2.821,-4.48,-3.65,-6.01,8.33
2.831,-4.82,-2.03,-4.86,7.14
2.841,-5.0,-0.73,-3.42,6.1
2.851,-5.17,1.27,-1.52,5.53
2.861,-5.06,3.96,0.41,6.44
2.871,-4.7,6.37,1.76,8.11
2.881,-3.79,7.57,2.8,8.92
2.891,-2.58,7.69,4.48,9.26
2.901,-1.59,8.29,6.46,10.63
2.911,-0.98,9.52,7.92,12.42
2.921,-0.57,10.36,8.74,13.57
2.931,0.06,10.86,9.2,14.23
2.942,0.96,11.36,9.58,14.89
2.951,2.12,11.2,9.73,14.99
2.961,3.18,10.42,9.39,14.38
2.972,4.02,9.4,8.61,13.36
2.982,4.5,7.77,7.62,11.77
2.992,4.67,5.43,6.35,9.57
3.002,4.69,2.88,4.89,7.36
3.012,4.71,0.31,2.91,5.54
3.022,4.56,-2.09,0.68,5.06
3.032,4.16,-3.88,-1.21,5.82
3.042,3.46,-4.99,-2.79,6.68
3.052,2.68,-5.68,-4.14,7.52
3.062,1.92,-5.99,-5.5,8.35
3.072,1.15,-6.11,-6.8,9.21
3.082,0.42,-6.41,-7.6,9.95
3.092,-0.3,-6.88,-8.16,10.67
3.103,-1.17,-7.17,-8.41,11.12
3.113,-2.07,-8.47,-8.27,12.02
3.123,-2.95,-8.6,-8.01,12.11
3.133,-3.86,-8.43,-7.79,12.11
3.143,-4.41,-7.96,-7.55,11.82
3.153,-4.62,-7.37,-7.3,11.36
3.163,-4.52,-6.84,-7.14,10.88
3.173,-4.5,-5.85,-6.71,9.97
3.183,-4.54,-4.42,-5.8,8.59
3.193,-4.17,-2.9,-4.78,6.98
3.203,-3.82,-1.35,-3.53,5.37
3.214,-3.66,0.6,-2.05,4.24
3.223,-3.42,3.01,-0.41,4.58
3.234,-3.03,4.9,1.62,5.99
3.244,-2.36,6.14,3.35,7.38
3.254,-1.41,6.7,4.85,8.39
3.264,-0.68,6.94,6.82,9.76
3.274,-0.35,7.63,8.7,11.58
3.284,-0.15,8.87,10.03,13.39
3.294,-0.08,10.27,10.69,14.82
3.304,0.45,10.54,10.52,14.9
3.314,1.6,9.48,10.03,13.89
3.324,2.79,8.31,9.34,12.81
3.334,3.49,7.33,8.79,11.97
3.344,3.89,6.76,7.85,11.06
3.354,3.96,5.92,6.68,9.76
3.365,3.75,4.33,5.88,8.21
3.375,3.45,2.13,4.62,6.15
3.385,2.97,-0.29,3.02,4.24
3.395,2.57,-2.68,1.11,3.88
3.405,2.18,-4.8,-0.54,5.3
3.415,1.72,-6.47,-1.85,6.95
3.425,1.28,-7.39,-3.27,8.18
3.435,0.78,-7.66,-4.72,9.03
3.445,0.16,-7.75,-5.95,9.78
3.455,-0.32,-7.41,-6.88,10.12
3.465,-0.72,-7.04,-7.75,10.5
3.475,-1.0,-7.06,-8.57,11.15
3.485,-1.34,-6.79,-9.22,11.53
3.495,-1.72,-7.64,-9.45,12.27
3.506,-1.9,-8.4,-9.11,12.53
3.516,-2.18,-8.13,-9.27,12.52
3.526,-2.55,-8.1,-9.17,12.5
3.536,-2.7,-7.77,-8.54,11.86
3.546,-2.77,-6.65,-7.9,10.69
3.556,-2.89,-4.74,-6.6,8.62
3.566,-2.97,-1.99,-4.81,5.99
3.576,-2.58,0.59,-3.19,4.14
3.586,-2.52,3.46,-0.47,4.3
3.596,-2.16,6.65,1.72,7.2
3.606,-1.87,8.97,3.53,9.82
3.616,-1.21,9.8,5.3,11.21
3.626,-0.51,9.96,7.22,12.31
3.637,-0.23,9.95,8.94,13.38
3.647,0.65,9.69,10.45,14.27
3.657,2.18,9.0,11.49,14.76
3.667,3.71,8.56,11.79,15.03
3.677,5.0,7.89,11.69,14.96
3.687,6.09,6.59,11.4,14.5
3.697,6.42,4.96,11.0,13.67
3.707,5.88,3.23,10.51,12.46
3.717,4.8,1.33,9.66,10.87
3.727,3.96,-0.91,7.84,8.83
3.737,3.47,-3.09,5.31,7.05
3.747,2.89,-4.43,2.88,6.02
3.758,2.06,-4.77,0.92,5.28
3.767,1.45,-4.74,-1.03,5.06
3.778,1.07,-4.99,-3.11,5.98
3.787,0.61,-5.32,-5.02,7.34
3.798,0.12,-5.8,-6.73,8.88
3.808,-0.46,-6.31,-8.14,10.31
3.818,-1.3,-6.36,-8.91,11.02
3.828,-1.99,-7.67,-9.27,12.2
3.838,-2.49,-7.74,-9.38,12.41
3.848,-3.11,-7.44,-9.87,12.75
3.858,-3.64,-7.33,-10.21,13.09
3.868,-4.21,-7.07,-9.89,12.87
3.878,-4.66,-6.51,-9.43,12.37
3.888,-5.04,-5.87,-9.07,11.92
3.898,-5.2,-5.1,-8.55,11.23
3.908,-5.0,-4.38,-7.89,10.32
3.919,-4.59,-3.88,-6.4,8.78
3.929,-3.88,-3.07,-4.83,6.91
3.939,-3.27,-1.89,-3.52,5.16
3.949,-2.7,-0.14,-1.93,3.32
3.959,-1.84,1.97,-0.14,2.7
3.969,-0.95,3.75,1.39,4.11
3.979,-0.09,5.15,2.9,5.92
3.989,0.59,5.97,4.43,7.46
3.999,0.7,7.27,6.15,9.54
4.009,0.54,9.64,8.06,12.58
4.019,0.99,11.91,9.36,15.18
4.029,2.43,12.57,9.38,15.87
4.04,4.05,11.4,9.7,15.5
4.05,5.11,10.88,10.39,15.89
4.06,5.78,9.91,10.23,15.37
4.07,6.11,7.89,9.72,13.93
4.08,5.77,5.46,9.04,12.03
4.09,4.87,2.85,7.9,9.71
4.1,4.0,-0.04,6.0,7.22
4.11,3.56,-2.73,3.75,5.85
4.12,3.03,-4.8,1.67,5.92
4.13,2.28,-5.99,0.37,6.42
4.14,1.46,-6.44,-0.94,6.67
4.15,0.66,-6.54,-2.5,7.03
4.16,-0.1,-6.42,-3.81,7.46
4.17,-0.85,-6.19,-4.9,7.94
4.18,-1.61,-6.01,-5.74,8.47
4.19,-2.29,-6.36,-6.28,9.23
4.201,-2.87,-6.47,-6.58,9.66
4.211,-3.61,-6.6,-6.96,10.25
4.221,-4.32,-6.75,-7.26,10.81
4.231,-4.79,-6.91,-7.18,11.06
4.241,-5.11,-6.62,-6.99,10.9
4.251,-5.25,-5.6,-6.81,10.26
4.261,-5.16,-4.76,-6.74,9.73
4.271,-4.69,-4.02,-6.18,8.74
4.281,-4.31,-3.11,-5.08,7.36
4.291,-4.09,-1.81,-3.61,5.75
4.301,-3.94,-0.01,-1.83,4.34
4.311,-3.89,1.89,-0.34,4.34
4.321,-3.69,3.44,0.9,5.13
4.332,-3.15,4.49,1.95,5.81
4.342,-2.42,4.91,2.37,5.96
4.352,-2.23,5.74,3.28,6.98
4.362,-2.45,7.74,4.61,9.34
4.372,-2.59,9.92,5.46,11.61
4.382,-2.15,11.46,5.53,12.9
4.392,-0.89,11.59,4.71,12.54
4.402,0.98,10.57,3.9,11.31
4.412,2.77,9.16,3.67,10.25
4.422,4.09,7.61,3.64,9.37
4.432,4.79,5.54,3.67,8.2
4.442,5.0,2.92,4.27,7.19
4.452,4.87,0.1,4.45,6.6
4.462,4.18,-2.47,4.15,6.39
4.473,3.31,-4.32,3.64,6.54
4.483,2.53,-5.74,3.13,7.01
4.493,1.8,-6.76,2.45,7.41
4.503,1.08,-7.23,1.25,7.42
4.513,0.41,-7.32,-0.09,7.33
4.523,-0.12,-7.2,-1.67,7.39
4.533,-0.41,-7.09,-3.54,7.93
4.543,-0.52,-7.0,-5.13,8.69
4.553,-0.47,-6.73,-6.46,9.34
4.563,-0.61,-6.35,-7.53,9.87
4.573,-1.1,-6.87,-7.86,10.5
4.583,-1.6,-7.89,-7.65,11.11
4.593,-1.99,-7.17,-7.79,10.77
4.603,-2.34,-6.46,-7.65,10.28
4.613,-2.85,-5.85,-6.4,9.13
4.624,-3.1,-4.39,-5.47,7.66
4.634,-2.82,-2.48,-4.97,6.23
4.644,-2.62,-0.36,-3.88,4.69
4.654,-2.3,1.95,-2.58,3.97
4.664,-1.78,4.0,-1.35,4.59
4.674,-0.79,5.39,-0.47,5.47
4.684,0.18,6.31,0.37,6.32
4.694,0.88,7.52,1.53,7.72
4.704,1.19,9.03,2.38,9.41
4.714,1.66,10.26,2.67,10.73
4.724,2.48,11.42,3.34,12.16
4.734,3.58,11.92,4.45,13.22
4.745,5.1,10.47,5.85,13.03
4.755,6.45,7.82,7.88,12.84
4.765,7.42,4.98,9.5,13.05
4.775,7.86,2.09,9.41,12.44
4.785,7.4,-0.48,8.19,11.05
4.795,6.23,-2.8,7.48,10.13
4.805,4.64,-4.42,6.95,9.45
4.815,3.22,-5.59,5.39,8.41
4.825,2.33,-6.57,3.49,7.8
4.835,1.71,-7.05,1.42,7.39
4.845,1.31,-7.14,-1.15,7.35
4.855,1.04,-6.87,-3.54,7.8
4.865,0.53,-6.39,-5.36,8.35
4.876,-0.18,-5.88,-6.6,8.84
4.886,-1.27,-6.18,-7.64,9.91
4.896,-2.38,-6.57,-8.27,10.82
4.906,-3.38,-6.84,-8.58,11.48
4.916,-4.51,-7.21,-8.38,11.93
4.926,-5.23,-7.09,-7.82,11.78
4.936,-5.78,-6.98,-7.7,11.89
4.946,-6.22,-6.68,-7.48,11.81
4.956,-6.37,-6.27,-6.91,11.3
4.966,-6.22,-5.85,-6.25,10.58
4.976,-5.81,-5.25,-5.45,9.54
4.986,-5.13,-4.04,-4.6,7.99
4.996,-4.72,-1.91,-3.31,6.08
5.006,-4.4,0.56,-2.01,4.87
5.016,-3.93,2.91,-1.01,4.99
5.026,-3.32,4.57,0.32,5.66
5.037,-2.49,5.8,1.29,6.44
5.047,-2.2,7.6,3.11,8.5
5.057,-2.17,10.13,5.21,11.6
5.067,-1.9,12.98,6.83,14.79
5.077,-0.85,14.13,8.05,16.29
5.087,1.31,12.85,8.81,15.63
5.097,3.68,10.81,9.93,15.14
5.107,5.28,8.6,11.71,15.46
5.117,6.22,6.19,12.71,15.45
5.127,6.44,3.51,12.44,14.44
5.137,5.98,1.0,11.52,13.02
5.147,5.13,-1.35,10.29,11.57
5.158,4.15,-3.61,8.77,10.35
5.168,3.35,-5.52,6.67,9.29
5.178,2.88,-7.07,4.49,8.86
5.188,2.46,-8.04,2.24,8.7
5.198,1.93,-8.29,-0.38,8.52
5.208,1.36,-8.13,-2.85,8.72
5.218,0.66,-7.85,-5.1,9.38
5.228,-0.05,-7.72,-7.16,10.53
5.238,-0.82,-7.6,-8.9,11.74
5.248,-1.59,-7.76,-10.16,12.88
5.258,-2.17,-9.15,-10.65,14.2
5.268,-2.64,-9.0,-11.63,14.94
5.278,-3.44,-8.41,-12.39,15.37
5.288,-4.2,-8.73,-11.78,15.25
5.298,-4.5,-8.48,-10.81,14.46
5.309,-4.62,-7.58,-10.3,13.59
5.319,-4.54,-6.21,-9.53,12.24
5.329,-4.09,-4.62,-8.27,10.32
5.339,-3.77,-2.78,-6.89,8.33
5.349,-3.99,0.48,-4.54,6.06
5.359,-3.47,3.35,-4.46,6.57
5.369,-3.18,5.0,-2.53,6.45
5.379,-2.77,5.68,-0.18,6.32
5.389,-1.89,5.91,1.72,6.44
5.399,-0.96,6.84,3.83,7.9
5.41,0.02,8.78,5.3,10.26
5.419,0.76,11.37,6.07,12.91
5.43,1.72,13.38,6.98,15.19
5.44,3.23,13.52,8.21,16.14
5.45,4.33,11.0,9.69,15.29
5.46,4.86,8.18,10.91,14.47
5.47,4.87,5.21,10.82,12.96
5.48,4.22,2.23,9.84,10.94
5.49,3.48,-0.28,8.68,9.36
5.5,2.72,-2.22,7.34,8.14
5.51,1.9,-3.49,5.69,6.94
5.52,1.35,-4.43,3.9,6.06
5.53,1.07,-4.97,2.07,5.49
5.54,0.86,-5.11,-0.04,5.18
5.55,0.55,-5.15,-2.19,5.62
5.561,-0.02,-5.11,-3.91,6.44
5.571,-0.58,-5.32,-5.22,7.48
5.581,-1.2,-5.68,-6.49,8.71
5.591,-1.96,-5.88,-7.59,9.8
5.601,-2.69,-6.18,-8.31,10.7
5.611,-3.19,-6.57,-8.73,11.38
5.621,-3.53,-6.77,-8.94,11.76
5.631,-3.72,-6.93,-9.31,12.19
5.641,-3.82,-6.73,-9.31,12.11
5.651,-3.84,-6.06,-8.85,11.39
5.661,-3.83,-4.96,-8.13,10.26
5.671,-3.82,-2.85,-6.95,8.43
5.681,-3.77,-0.79,-5.35,6.59
5.692,-3.53,1.11,-3.66,5.2
5.701,-2.9,2.35,-2.31,4.39
5.712,-2.01,2.98,-0.75,3.68
5.722,-0.86,3.44,0.98,3.68
5.732,0.05,4.26,2.93,5.17
5.742,0.87,5.44,4.79,7.3
5.752,1.77,6.41,6.2,9.09
5.762,2.72,6.72,7.58,10.49
5.772,3.97,6.16,8.83,11.47
5.782,5.63,4.89,9.61,12.16
5.792,7.11,3.56,10.03,12.8
5.802,7.89,2.61,10.37,13.29
5.812,7.94,2.02,10.05,12.97
5.823,7.51,1.49,9.19,11.96
5.833,6.75,0.83,8.2,10.65
5.842,5.69,0.19,6.83,8.89
5.853,4.67,-0.69,4.99,6.87
5.863,3.72,-1.63,2.59,4.82
5.873,2.83,-2.41,0.26,3.73
5.883,1.97,-3.16,-1.73,4.11
5.893,1.15,-3.83,-3.38,5.24
5.903,0.32,-4.19,-4.58,6.21
5.913,-0.48,-4.33,-5.31,6.86
5.923,-1.31,-4.5,-5.85,7.49
5.933,-2.13,-4.53,-6.32,8.06
5.943,-2.88,-4.64,-6.59,8.56
5.953,-3.5,-4.91,-6.82,9.1
5.964,-3.98,-5.37,-6.98,9.66
5.973,-4.4,-5.82,-6.83,10.0
5.984,-4.74,-5.96,-6.64,10.1
5.994,-5.13,-5.59,-6.35,9.89
6.004,-5.43,-4.77,-5.96,9.37
6.014,-5.57,-3.43,-5.29,8.41
6.024,-5.6,-1.63,-4.42,7.32
6.034,-5.32,0.25,-3.24,6.23
6.044,-4.74,1.34,-1.94,5.29
6.054,-3.77,1.89,-0.68,4.28
6.064,-2.85,2.48,0.74,3.85
6.074,-2.16,3.44,2.13,4.58
6.084,-1.6,4.59,3.24,5.85
6.094,-1.18,5.68,4.32,7.24
6.104,-0.65,6.84,5.35,8.71
6.115,-0.1,7.58,6.49,9.98
6.125,0.78,8.28,7.62,11.28
6.135,1.92,8.56,8.47,12.19
6.145,3.06,8.28,9.23,12.77
6.155,3.93,7.24,9.74,12.76
6.165,4.25,5.7,10.23,12.46
6.175,4.0,4.04,10.21,11.68
6.185,3.26,2.56,9.61,10.47
6.195,2.32,1.13,8.44,8.83
6.205,1.45,-0.18,6.72,6.87
6.215,0.54,-1.54,4.83,5.1
6.225,-0.36,-2.95,2.74,4.04
6.235,-1.08,-4.22,0.6,4.4
6.245,-1.61,-5.15,-1.78,5.68
6.255,-2.01,-5.74,-3.98,7.26
6.266,-2.56,-6.13,-5.87,8.86
6.276,-3.15,-6.4,-7.47,10.33
6.286,-3.5,-6.95,-8.48,11.5
6.296,-3.77,-7.39,-8.8,12.09
6.306,-4.1,-8.19,-8.88,12.76
6.316,-4.25,-7.92,-8.87,12.63
6.326,-4.41,-7.78,-8.86,12.59
6.336,-4.45,-6.41,-8.52,11.55
6.346,-4.59,-4.92,-8.29,10.68
6.356,-4.31,-3.5,-7.96,9.7
6.366,-3.77,-1.97,-7.18,8.34
6.376,-2.9,-0.5,-6.2,6.87
6.386,-1.97,1.24,-4.82,5.35
6.397,-0.83,2.91,-3.3,4.48
6.407,0.58,3.98,-1.8,4.41
6.417,2.17,4.91,-0.06,5.36
6.427,3.82,5.7,1.57,7.03
6.437,5.58,5.98,2.89,8.67
6.447,7.39,5.28,4.45,10.12
6.457,9.43,3.47,6.44,11.93
6.467,10.94,1.94,8.05,13.72
6.477,11.51,1.07,8.81,14.53
6.487,11.61,0.5,9.04,14.73
6.497,11.42,-0.01,8.85,14.45
6.507,10.77,-0.49,8.28,13.59
6.517,9.37,-1.12,5.85,11.1
6.527,8.6,-1.94,5.42,10.35
6.538,5.59,-0.78,5.22,7.69
6.548,5.3,-1.92,0.48,5.66
6.558,4.36,-1.97,-1.08,4.9
6.568,2.73,-2.16,-2.14,4.08
6.578,1.39,-2.86,-3.56,4.77
6.588,0.14,-3.98,-4.97,6.37
6.598,-1.05,-5.12,-5.96,7.93
6.608,-2.13,-5.95,-6.59,9.13
6.618,-3.11,-6.5,-6.91,9.99
6.628,-4.01,-6.91,-7.15,10.72
6.638,-4.65,-7.12,-7.29,11.2
6.648,-5.16,-7.18,-7.3,11.47
6.659,-5.66,-7.02,-6.91,11.37
6.668,-6.14,-6.52,-6.16,10.87
6.679,-6.45,-5.45,-5.41,10.03
6.689,-6.42,-4.05,-4.8,8.98
6.699,-6.31,-2.45,-3.96,7.84
6.709,-6.02,-1.1,-2.85,6.74
6.719,-5.61,-0.24,-1.89,5.92
6.729,-5.49,0.49,-0.88,5.59
6.739,-5.39,1.5,0.45,5.61
6.749,-5.25,3.08,1.97,6.4
6.759,-5.45,5.03,3.41,8.17
6.769,-5.74,6.86,5.03,10.26
6.779,-5.31,7.72,6.92,11.65
6.79,-3.85,7.11,8.69,11.87
6.799,-1.52,5.82,10.08,11.74
6.809,0.43,4.99,11.42,12.47
6.82,1.46,4.36,12.57,13.39
6.83,2.15,3.68,13.31,13.97
6.84,2.18,2.87,13.71,14.17
6.85,1.72,2.02,13.79,14.04
6.86,1.28,1.11,12.98,13.09
6.87,1.04,0.22,11.58,11.63
6.88,0.86,-0.75,9.79,9.85
6.89,0.84,-1.7,7.38,7.62
6.9,0.75,-2.51,4.82,5.48
6.91,0.58,-3.36,2.33,4.13
6.92,0.43,-4.25,-0.11,4.27
6.93,0.1,-4.96,-2.37,5.5
6.94,-0.21,-5.49,-4.51,7.1
6.951,-0.52,-5.7,-6.52,8.68
6.961,-0.79,-5.83,-8.18,10.07
6.971,-0.9,-6.12,-9.36,11.22
6.981,-0.78,-6.44,-10.23,12.11
6.991,-0.74,-6.37,-10.76,12.53
7.001,-0.77,-7.05,-10.42,12.6
7.011,-0.8,-7.16,-10.1,12.4
7.021,-1.0,-6.35,-9.66,11.6
7.031,-1.29,-5.35,-8.75,10.34
7.041,-1.33,-3.69,-8.0,8.91
7.051,-1.67,-1.79,-7.17,7.57
7.061,-1.94,0.49,-5.74,6.08
7.071,-1.65,2.22,-4.36,5.17
7.082,-1.04,3.08,-3.05,4.45
7.092,-0.63,4.27,-1.11,4.45
7.102,-0.22,5.48,0.73,5.53
7.112,0.52,5.88,2.2,6.3
7.122,1.84,5.45,3.62,6.8
7.132,3.14,4.78,4.87,7.52
7.142,4.5,3.84,6.18,8.55
7.152,5.56,3.08,7.48,9.81
7.162,6.21,2.63,8.4,10.77
7.172,6.79,2.05,8.89,11.37
7.182,7.17,1.31,9.19,11.73
7.192,7.22,0.28,9.26,11.75
7.202,7.3,-0.58,8.61,11.3
7.213,7.18,-1.11,7.37,10.35
7.223,6.78,-1.32,5.8,9.02
7.233,6.0,-1.31,3.98,7.32
7.243,5.19,-1.72,2.11,5.86
7.253,4.48,-2.43,0.17,5.1
7.263,3.68,-3.24,-1.58,5.15
7.273,2.7,-4.0,-2.99,5.68
7.283,1.54,-4.58,-4.2,6.4
7.293,0.19,-4.92,-5.12,7.11
7.303,-1.21,-5.09,-5.64,7.7
7.313,-2.42,-5.26,-5.83,8.22
7.323,-3.34,-5.74,-5.92,8.89
7.333,-3.87,-6.29,-5.8,9.39
7.344,-4.2,-6.83,-5.51,9.73
7.353,-4.44,-7.24,-5.17,9.94
7.364,-4.55,-7.32,-5.03,9.98
7.374,-4.71,-6.77,-4.84,9.56
7.384,-4.87,-5.6,-4.33,8.6
7.394,-5.05,-4.12,-3.86,7.57
7.404,-5.24,-2.5,-3.42,6.74
7.414,-5.25,-1.04,-2.7,6.0
7.424,-5.01,0.02,-1.96,5.38
7.434,-4.83,1.33,-1.06,5.13
7.444,-4.84,3.19,-0.05,5.8
7.454,-5.08,6.04,0.91,7.94
7.464,-5.19,8.54,1.7,10.14
7.475,-5.24,10.52,2.72,12.07
7.484,-5.1,11.97,4.28,13.7
7.494,-4.38,12.06,5.76,14.06
7.505,-3.02,11.25,6.66,13.41
7.515,-1.34,9.78,7.1,12.16
7.525,0.31,7.95,7.67,11.06
7.535,1.39,6.19,8.59,10.68
7.545,1.97,3.86,8.75,9.77
7.555,2.06,1.34,8.02,8.39
7.565,1.64,-0.47,7.15,7.35
7.575,1.25,-2.06,6.1,6.56
7.585,1.12,-3.53,4.47,5.8
7.595,1.47,-5.18,2.63,5.99
7.605,1.84,-6.45,0.78,6.75
7.615,2.42,-7.06,-1.22,7.57
7.625,2.78,-7.1,-2.91,8.16
7.636,2.47,-6.25,-4.26,7.96
7.645,2.14,-5.11,-5.4,7.73
7.656,2.04,-4.45,-6.45,8.1
7.666,2.18,-4.26,-7.67,9.04
7.676,2.4,-4.15,-8.53,9.79
7.686,2.6,-4.34,-9.09,10.4
7.696,2.74,-4.76,-9.37,10.86
7.706,2.64,-5.05,-9.14,10.77
7.716,2.33,-4.82,-8.58,10.11
7.726,1.9,-3.77,-7.95,9.0
7.736,1.25,-2.05,-7.11,7.5
7.746,0.65,-0.31,-5.86,5.91
7.756,0.27,1.07,-4.51,4.64
7.767,-0.02,2.24,-3.22,3.92
7.777,-0.26,3.56,-1.69,3.95
7.787,-0.25,4.85,-0.11,4.86
7.797,0.17,5.87,1.06,5.96
7.807,0.56,6.94,2.03,7.25
7.817,0.74,7.82,3.38,8.55
7.827,0.95,8.06,4.79,9.43
7.837,1.37,7.64,5.75,9.66
7.847,1.98,6.24,6.44,9.18
7.857,2.58,4.28,7.04,8.63
7.867,3.18,2.36,7.66,8.62
7.877,3.45,0.86,7.94,8.7
7.887,3.15,0.08,7.94,8.54
7.898,2.64,-0.2,7.69,8.13
7.907,2.19,-0.51,6.96,7.32
7.918,1.84,-1.07,5.89,6.26
7.928,1.46,-1.83,4.56,5.12
7.938,1.17,-2.76,2.71,4.04
7.948,0.98,-3.79,0.56,3.95
7.958,0.68,-4.63,-1.35,4.87
7.968,0.16,-4.9,-3.04,5.77
7.978,-0.61,-4.67,-4.37,6.42
7.988,-1.39,-4.57,-5.44,7.24
7.998,-2.01,-4.75,-6.42,8.23
8.008,-2.63,-4.83,-7.09,8.98
8.019,-3.35,-5.35,-7.29,9.64
8.028,-3.96,-5.66,-6.92,9.78
8.038,-4.49,-5.33,-6.59,9.59
8.049,-4.78,-5.27,-6.37,9.55
8.059,-4.69,-5.08,-5.85,9.06
8.069,-4.71,-4.37,-5.12,8.22
8.079,-4.85,-3.2,-4.05,7.08
8.089,-4.85,-2.02,-3.19,6.15
8.099,-4.46,-1.05,-2.69,5.32
8.109,-4.03,0.04,-2.1,4.54
8.119,-3.49,1.35,-1.23,3.94
8.129,-2.99,3.05,-0.05,4.27
8.139,-2.53,5.18,1.43,5.94
8.149,-2.21,7.43,2.77,8.24
8.159,-1.93,9.39,3.74,10.29
8.17,-1.37,10.36,4.81,11.5
8.18,-0.35,10.2,5.71,11.7
8.19,1.01,9.35,6.39,11.37
8.2,2.26,8.48,7.18,11.34
8.21,2.96,7.85,8.03,11.61
8.22,3.27,6.85,8.54,11.42
8.23,3.48,5.07,8.49,10.49
8.24,3.33,3.03,8.31,9.45
8.25,2.88,1.21,7.87,8.47
8.26,2.36,-0.29,6.77,7.17
8.27,1.93,-1.44,5.26,5.78
8.28,1.65,-2.34,3.66,4.65
8.29,1.48,-3.02,1.98,3.9
8.3,1.63,-3.94,0.11,4.26
8.31,2.18,-4.98,-1.87,5.75
8.321,2.78,-5.76,-3.57,7.32
8.331,3.14,-6.2,-4.87,8.49
8.341,3.15,-6.51,-5.93,9.35
8.351,2.91,-6.52,-6.74,9.81
8.361,2.5,-7.29,-7.37,10.66
8.371,2.22,-7.67,-7.59,11.02
8.381,1.99,-7.56,-7.9,11.12
8.391,1.86,-7.56,-8.25,11.34
8.401,1.8,-7.35,-8.32,11.25
8.411,1.51,-6.67,-8.01,10.53
8.421,1.05,-5.42,-7.36,9.2
8.431,0.46,-3.93,-6.46,7.58
8.441,-0.07,-2.43,-5.47,5.98
8.451,-0.48,-1.06,-4.31,4.46
8.462,-0.67,0.22,-3.24,3.32
8.472,-0.76,1.44,-2.38,2.88
8.482,-1.07,3.07,-1.14,3.45
8.492,-1.59,5.14,0.31,5.39
8.502,-1.83,6.8,1.34,7.17
8.512,-1.47,7.79,2.08,8.2
8.522,-0.73,8.41,3.08,8.98
8.532,0.03,8.56,4.28,9.57
8.542,0.84,8.02,4.75,9.36
8.552,1.68,6.93,4.94,8.68
8.562,2.6,5.43,5.38,8.07
8.572,3.06,3.83,5.93,7.7
8.583,3.22,2.31,6.29,7.44
8.592,3.09,0.84,5.96,6.77
8.603,2.74,-0.16,5.37,6.03
8.613,2.19,-0.66,4.78,5.29
8.623,1.59,-1.11,3.94,4.39
8.633,1.28,-1.94,2.74,3.6
8.643,1.2,-2.99,1.29,3.47
8.653,1.13,-3.94,-0.28,4.11
8.663,0.87,-4.63,-1.78,5.03
8.673,0.38,-4.9,-3.09,5.81
8.683,-0.16,-4.92,-4.45,6.64
8.693,-0.74,-5.01,-5.41,7.42
8.703,-1.45,-4.9,-5.98,7.87
8.713,-2.19,-4.41,-6.42,8.09
8.723,-2.83,-3.97,-6.7,8.28
8.734,-3.36,-3.64,-6.5,8.17
8.744,-3.73,-3.3,-6.26,8.0
8.754,-3.95,-3.3,-6.11,7.99
8.764,-3.94,-2.95,-5.7,7.53
8.774,-3.9,-2.65,-5.3,7.09
8.784,-3.7,-2.5,-4.82,6.57
8.794,-3.33,-2.04,-4.15,5.7
8.804,-3.04,-1.32,-2.9,4.4
8.814,-2.92,0.16,-1.5,3.29
8.824,-2.82,2.12,-0.04,3.52
8.834,-2.62,3.82,1.55,4.88
8.844,-2.39,4.86,2.91,6.15
8.854,-1.81,5.47,3.85,6.94
8.865,-1.04,5.96,4.3,7.43
8.875,-0.6,5.93,4.87,7.69
8.885,-0.61,5.69,6.15,8.4
8.895,-0.75,5.9,7.61,9.66
8.905,-1.4,6.22,8.54,10.66
8.915,-2.0,6.25,8.97,11.12
8.925,-2.1,5.55,8.64,10.48
8.935,-1.64,4.2,7.63,8.86
8.945,-1.41,2.83,7.15,7.82
8.955,-1.19,1.64,6.48,6.79
8.965,-0.88,0.67,4.96,5.08
8.975,-0.42,-0.09,3.48,3.5
8.985,-0.07,-0.7,2.48,2.58
8.995,-0.22,-1.55,1.59,2.23
9.005,0.47,-2.74,0.51,2.83
9.016,0.13,-3.4,-1.28,3.63
9.026,-0.02,-4.25,-3.34,5.41
9.036,2.59,-3.74,-2.93,5.41
9.046,4.29,-3.41,-3.69,6.61
9.056,4.79,-3.41,-4.83,7.61
9.066,4.49,-3.74,-5.41,7.97
9.076,3.68,-3.88,-6.1,8.12
9.086,2.89,-3.82,-5.94,7.63
9.096,2.09,-4.25,-5.58,7.32
9.106,1.3,-4.63,-6.14,7.8
9.116,0.96,-4.34,-6.08,7.54
9.127,1.48,-3.85,-4.81,6.34
9.137,2.29,-3.66,-3.65,5.66
9.147,3.03,-2.84,-2.79,5.01
9.157,3.09,-1.08,-2.4,4.06
9.167,2.29,0.04,-2.43,3.33
9.177,2.6,0.19,-2.14,3.37
9.187,2.9,-0.35,-1.22,3.17
9.197,2.57,0.59,0.61,2.71
9.207,1.34,1.15,1.23,2.15
9.217,1.08,2.93,1.18,3.34
9.227,0.35,3.87,1.45,4.15
9.237,-0.93,3.24,1.49,3.69
9.247,-2.51,4.16,2.24,5.35
9.257,-3.34,4.37,2.33,5.98
9.267,-2.68,4.66,2.86,6.09
9.278,-3.17,3.89,3.76,6.27
9.288,-3.05,3.31,3.85,5.93
9.297,-1.75,3.54,3.93,5.57
9.308,-0.29,3.07,3.61,4.75
9.318,0.83,2.08,3.24,3.93
9.328,2.1,2.18,2.35,3.83
9.338,3.49,0.46,3.57,5.02
9.348,3.88,-1.73,5.0,6.56
9.358,2.74,-0.22,2.32,3.6
9.368,1.8,-0.54,0.87,2.07
9.378,1.1,-1.3,-0.99,1.97
9.388,1.05,-2.01,-2.23,3.18
9.398,0.6,-2.78,-2.12,3.54
9.408,0.62,-3.12,-1.63,3.58
9.418,0.63,-3.66,-0.93,3.83
9.429,0.42,-3.8,-0.72,3.89
9.439,-0.39,-3.39,-1.26,3.64
9.449,-1.04,-3.0,-1.81,3.66
9.459,-1.23,-3.02,-1.92,3.78
9.469,-1.54,-3.02,-1.96,3.92
9.479,-2.05,-2.89,-2.23,4.19
9.489,-2.44,-2.34,-3.44,4.82
9.499,-2.54,-1.73,-4.7,5.62
9.509,-2.26,-1.18,-4.58,5.25
9.519,-1.67,-0.35,-3.0,3.45
9.529,-0.83,0.88,-0.95,1.54
9.539,-0.34,1.56,2.74,3.17
9.55,-0.58,1.27,5.12,5.31
9.56,-1.46,1.44,2.69,3.39
9.57,-1.84,2.3,-0.14,2.95
9.58,-1.74,2.08,-0.83,2.84
9.59,-1.27,2.12,-0.7,2.57
9.6,-0.94,2.56,0.1,2.72
9.61,-0.73,3.04,0.83,3.23
9.62,-0.89,3.1,1.5,3.56
9.63,-1.05,2.89,2.21,3.79
9.64,-0.95,3.04,3.04,4.4
9.65,-0.56,3.16,3.68,4.88
9.66,0.14,2.99,3.5,4.6
9.67,0.91,2.5,2.72,3.8
9.68,1.5,1.83,1.7,2.91
9.691,1.72,1.37,0.51,2.26
9.701,1.63,1.01,-0.03,1.92
9.711,1.29,0.57,-0.02,1.41
9.721,0.89,0.55,-0.1,1.05
9.731,-0.4,0.14,-0.0,0.42
9.741,-0.06,0.5,-0.88,1.02
9.751,-0.75,0.29,-1.67,1.85
9.761,-1.45,-0.35,-1.92,2.44
9.771,-1.22,-0.2,-2.26,2.57
9.781,-0.07,-0.61,-2.29,2.37
9.791,0.8,-1.24,-2.98,3.33
9.801,1.62,-1.98,-3.55,4.38
9.811,2.04,-2.47,-3.63,4.84
9.821,1.65,-2.48,-3.86,4.87
9.832,0.73,-2.39,-4.29,4.97
9.842,0.26,-2.55,-4.8,5.44
9.852,0.2,-2.49,-5.23,5.8
9.862,0.27,-1.9,-4.43,4.83
9.872,0.24,-0.65,-1.04,1.25
9.882,0.06,0.12,1.17,1.18
9.892,0.94,0.79,1.68,2.08
9.902,1.56,0.81,1.31,2.19
9.912,1.2,0.02,0.9,1.5
9.922,1.16,-0.26,0.66,1.35
9.932,1.23,0.39,0.63,1.44
9.942,0.87,1.34,0.45,1.66
9.952,0.3,2.0,0.41,2.06
9.962,-0.38,2.23,1.0,2.47
9.973,-0.71,2.62,2.59,3.76
9.983,-1.12,3.39,4.25,5.55
9.993,-1.33,4.09,5.01,6.6
10.003,-0.82,4.28,5.11,6.72
10.013,-0.1,3.47,4.75,5.88
10.023,0.61,2.48,4.27,4.98
10.033,1.08,1.95,3.9,4.49
10.043,1.28,1.52,3.45,3.98
10.053,1.47,1.07,2.95,3.47
10.063,1.64,0.41,2.2,2.77
10.073,1.68,-0.62,1.7,2.47
10.083,2.06,-0.36,0.01,2.09
10.093,1.07,-1.05,-0.53,1.59
10.103,0.78,-2.02,-0.26,2.18
10.114,0.55,-2.01,-0.22,2.09
10.124,0.41,-1.95,-0.74,2.12
10.134,0.3,-2.11,-1.12,2.41
10.144,0.36,-2.16,-1.48,2.65
10.154,0.48,-2.14,-1.79,2.83
10.164,0.51,-2.16,-2.01,3.0
10.174,0.49,-2.15,-2.06,3.02
10.184,0.4,-2.1,-1.96,2.9
10.194,0.31,-2.0,-1.89,2.76
10.204,0.19,-1.82,-1.83,2.59
10.214,0.16,-1.62,-1.73,2.38
10.224,-0.01,-1.48,-1.63,2.2
10.234,-1.11,-1.57,-3.23,3.76
10.245,-2.27,-1.13,-1.39,2.89
10.255,-1.44,-0.46,-0.12,1.52
10.265,-0.0,0.1,-0.37,0.38
10.275,0.3,0.59,-0.28,0.72
10.285,0.2,0.96,-0.08,0.98
10.295,0.16,1.15,-0.13,1.17
10.305,-0.32,1.21,-0.22,1.27
10.315,-0.83,1.28,-0.3,1.56
10.325,-0.15,1.22,-0.88,1.51
