time,ax,ay,az,atotal
0.003319,-0.1051,0.5698,-0.18,0.607
0.008867,-0.0648,0.2595,0.2247,0.349
0.015739,0.1673,-0.0389,-0.2405,0.296
0.026112,0.3039,-0.1487,-0.7838,0.854
0.035646,0.2521,-0.1018,-0.9024,0.942
0.045754,0.2786,-0.0641,-0.6329,0.694
0.06739,0.3627,-0.2318,-0.5786,0.721
0.068113,0.4867,-0.5503,-0.8331,1.111
0.076566,0.5333,-0.7719,-1.0658,1.42
0.086308,0.4454,-0.8987,-1.1042,1.492
0.095934,0.1456,-1.1554,-0.8319,1.431
0.112545,0.1138,-1.4221,-0.778,1.625
0.116733,0.0832,-1.7081,-0.8832,1.925
0.127739,0.0069,-1.9958,-0.8826,2.182
0.135736,-0.1077,-2.217,-0.8446,2.375
0.145933,-0.3,-2.2669,-0.9516,2.477
0.157663,-0.4659,-2.2643,-1.2102,2.609
0.165955,-0.365,-2.3585,-1.487,2.812
0.178798,-0.1212,-2.3352,-1.6512,2.863
0.190863,-0.09,-1.9206,-1.7196,2.579
0.19572,-0.206,-1.2927,-1.3461,1.878
0.206212,-0.507,-0.4778,-0.9862,1.207
0.215884,-0.3536,0.3308,-0.3034,0.571
0.225886,0.01,1.0706,1.0251,1.482
0.237222,0.5122,2.2019,2.8851,3.665
0.245833,0.6162,4.1445,4.6183,6.236
0.256399,0.2101,6.439,5.8767,8.72
0.265779,-0.7781,9.1599,6.5942,11.313
0.276684,-0.9155,11.3547,7.1647,13.457
0.293118,-0.4066,12.5782,6.7613,14.286
0.295893,0.1656,13.9414,6.6754,15.458
0.305807,0.4378,15.6147,7.0071,17.12
0.315877,0.2876,16.9345,7.7385,18.621
0.326176,0.0445,17.3837,12.0469,21.15
0.369341,0.7598,16.6132,12.4944,20.801
0.370703,1.2566,15.7369,9.2934,18.319
0.371781,0.7311,15.2916,6.1426,16.495
0.372727,-0.5137,14.6844,4.3101,15.313
0.397923,-1.4448,12.4567,3.8802,13.127
0.401159,-1.553,8.455,4.1734,9.556
0.403229,-1.2122,3.7423,4.1348,5.707
0.408879,-0.8892,-0.0416,3.454,3.567
0.416047,-0.8295,-2.5761,1.7802,3.239
0.42583,-0.6244,-4.7746,-0.1628,4.818
0.435702,0.228,-7.1424,-1.8558,7.383
0.445578,1.3495,-9.4079,-2.9327,9.946
0.45603,1.9002,-10.9611,-3.3584,11.62
0.471234,1.9826,-11.4403,-3.66,12.174
0.475666,1.5485,-10.9156,-4.2577,11.818
0.486234,0.9258,-10.1344,-5.0078,11.342
0.496182,0.2348,-9.5545,-5.6484,11.102
0.50609,-0.374,-9.2419,-6.2645,11.171
0.517597,-0.8712,-8.98,-6.7197,11.25
0.52559,-1.1288,-8.707,-7.0879,11.284
0.535936,-1.296,-8.4251,-6.9547,11.001
0.545651,-0.9257,-8.6023,-6.1773,10.631
0.555994,-0.1606,-9.4229,-5.226,10.776
0.587393,0.7028,-10.5606,-4.2248,11.396
0.58971,0.7061,-10.5838,-4.3034,11.447
0.591975,0.5809,-10.3228,-4.9976,11.484
0.595752,0.5332,-10.0458,-5.9448,11.685
0.609464,0.3206,-9.7699,-6.4583,11.716
0.621198,0.0295,-9.3088,-6.3498,11.268
0.625772,-0.2238,-8.8475,-6.1562,10.781
0.636297,-0.4334,-8.6015,-6.1764,10.598
0.645622,-0.4543,-8.4941,-6.2902,10.579
0.655787,-0.491,-8.463,-6.284,10.552
0.680405,-0.4071,-8.529,-5.9107,10.385
0.683482,-0.3447,-8.4911,-5.2539,9.991
0.686831,-0.4145,-8.4605,-4.4891,9.587
0.695642,-0.3702,-8.4928,-4.3902,9.568
0.705712,-0.2851,-8.5594,-4.8853,9.86
0.715841,-0.6178,-8.3524,-5.0965,9.804
0.725682,-0.9574,-8.0065,-4.4308,9.201
0.735707,-1.0315,-7.8835,-3.1716,8.56
0.746261,-0.8311,-7.9834,-2.3685,8.369
0.756289,-0.8804,-7.9198,-2.4337,8.332
0.790679,-1.2216,-7.2867,-1.9742,7.648
0.793885,-1.5015,-5.7892,-1.0693,6.076
0.797387,-1.4623,-4.2387,-0.7388,4.544
0.800039,1.9352,0.4764,2.2672,3.019
0.811913,5.0839,6.0575,2.8343,8.401
0.815998,6.8428,13.5019,0.6554,15.151
0.826069,6.0876,19.7644,-1.0234,20.706
0.836394,5.2879,24.9653,1.2229,25.548
0.853661,6.3413,27.5928,6.7565,29.107
0.857351,8.7959,28.963,11.7757,32.479
0.892447,10.3741,28.1121,14.2478,33.18
0.896708,9.3782,26.9941,18.0002,33.773
0.899605,5.7711,26.9273,22.9415,35.843
0.903334,0.9907,27.0154,25.0419,36.85
0.906126,-3.292,26.9567,24.2825,36.43
0.916261,-7.8532,25.4995,19.538,33.07
0.925887,-11.6653,26.1571,14.5909,32.143
0.936336,-12.2434,24.2172,10.1217,28.962
0.952855,-10.0209,19.0509,5.9195,22.325
0.957754,-6.7378,11.8747,3.238,14.032
0.984739,-2.7354,3.3028,1.7985,4.65
0.98751,1.5174,-5.1448,1.1733,5.491
0.988785,4.3124,-11.499,1.1946,12.339
1.004344,4.1592,-14.3417,0.9596,14.963
1.008149,2.4875,-14.9104,-0.2756,15.119
1.023878,1.6803,-14.8626,-1.795,15.065
1.029437,2.0758,-14.7642,-3.6293,15.345
1.037175,3.1535,-13.0796,-8.7941,16.073
1.046758,2.4464,-11.082,-10.1443,15.222
1.056388,1.4186,-8.9695,-10.1868,13.647
1.069542,0.4399,-7.4455,-9.7097,12.244
1.112044,0.1007,-6.9838,-8.6156,11.091
1.115751,0.2409,-7.406,-6.9702,10.173
1.117945,0.3969,-8.0293,-5.7888,9.906
1.120038,0.4104,-8.7485,-4.8936,10.033
1.122495,0.4293,-9.5061,-3.9184,10.291
1.12809,0.4012,-9.8881,-3.4128,10.468
1.136258,-0.03,-9.6433,-3.7145,10.334
1.149412,-0.8737,-8.7781,-4.7542,10.021
1.155873,-1.8028,-7.5366,-5.2057,9.335
1.166709,-2.3008,-6.8712,-5.1575,8.894
1.183465,-2.394,-6.9404,-5.3354,9.076
1.186622,-2.2556,-7.1555,-5.5175,9.313
1.229428,-2.128,-7.2289,-5.4359,9.292
1.232732,-2.0485,-7.2826,-5.4763,9.339
1.235053,-1.8217,-7.518,-5.4929,9.487
1.237379,-1.3603,-7.9088,-5.4846,9.72
1.239571,-0.837,-8.3605,-5.5212,10.054
1.24578,-0.2953,-8.8867,-5.6142,10.516
1.255925,0.2387,-9.34,-6.1022,11.159
1.267368,0.5486,-9.3931,-6.6799,11.539
1.301494,0.5563,-9.2289,-6.5116,11.309
1.304044,0.7031,-9.4362,-6.2256,11.327
1.305695,0.9019,-9.6241,-5.5755,11.159
1.307666,1.1211,-9.5324,-5.1336,10.885
1.322955,1.0431,-9.0887,-4.8862,10.372
1.327282,0.9858,-8.0504,-4.5748,9.312
1.336168,0.8163,-6.472,-4.6019,7.983
1.346337,0.8908,-5.3365,-4.8237,7.248
1.356723,1.0106,-4.2688,-3.6141,5.684
1.368871,1.1612,-2.8666,-1.7099,3.534
1.405919,1.0236,-0.5539,-0.3657,1.22
1.407922,2.1621,4.3221,1.6434,5.104
1.409717,4.3051,12.4728,3.6674,13.695
1.412645,3.0094,21.594,3.9664,22.161
1.416451,-1.3676,27.6452,5.1028,28.145
1.426194,-1.8176,29.7592,10.5515,31.627
1.435933,1.575,29.9806,18.3209,35.171
1.446035,5.7999,28.5797,22.1396,36.614
1.463862,8.4102,27.6232,21.682,36.109
1.466944,7.777,28.3157,22.7088,37.121
1.501477,4.9474,27.8333,24.8712,37.653
1.50571,1.1549,26.7321,25.0241,36.635
1.508359,-4.9015,25.2361,18.9711,31.95
1.510764,-8.6665,20.5562,13.9529,26.313
1.516059,-11.5242,19.4276,9.8238,24.632
1.526399,-10.2719,14.214,4.7539,18.17
1.535941,-6.3864,5.957,0.6181,8.755
1.546172,-2.1513,-2.2867,-1.277,3.389
1.562317,1.2294,-8.8043,-1.8072,9.072
1.565987,4.3071,-12.7964,-3.7015,14.0
1.576749,6.1489,-14.628,-6.9455,17.321
1.609694,6.2577,-14.9722,-8.9502,18.532
1.613153,5.4854,-14.2718,-8.9781,17.731
1.616285,4.1058,-12.8435,-8.0975,15.728
1.619814,2.2753,-10.9523,-7.5628,13.503
1.62614,1.1092,-9.5056,-7.223,11.99
1.636014,0.934,-9.1222,-6.4189,11.193
1.645988,0.9189,-9.3103,-5.0668,10.639
1.660773,1.4843,-9.7047,-4.6641,10.869
1.666735,2.352,-10.3375,-5.3428,11.872
1.697634,2.915,-10.8748,-5.6549,12.599
1.700978,3.2465,-11.0998,-5.3922,12.76
1.704067,3.2552,-11.3032,-4.9362,12.756
1.70676,2.9479,-11.2722,-4.6593,12.548
1.71697,2.2587,-10.9554,-4.4237,12.029
1.737369,1.2487,-10.3517,-4.3214,11.287
1.740979,-0.9538,-8.7001,-4.4231,9.806
1.745986,-1.7917,-7.8398,-4.2721,9.106
1.756026,-2.5123,-6.9496,-4.1528,8.477
1.766179,-3.0359,-6.2437,-4.3409,8.188
1.778125,-3.0387,-6.0846,-4.5543,8.185
1.821175,-2.6507,-6.4415,-4.852,8.489
1.824288,-1.9652,-7.0439,-4.9261,8.817
1.826588,-1.4547,-7.4937,-4.6188,8.922
1.82882,-1.3288,-7.6542,-4.0068,8.741
1.831273,-1.5212,-7.5857,-3.5125,8.497
1.837292,-1.6159,-7.6487,-3.2241,8.456
1.846168,-1.704,-7.8634,-2.9699,8.576
1.856296,-1.5446,-8.0826,-2.5119,8.604
1.866013,-1.364,-8.3439,-2.0743,8.705
1.876996,-1.1134,-8.5339,-2.0826,8.855
1.912479,-0.8299,-8.6325,-2.2962,8.971
1.914731,-0.6161,-8.7428,-2.2924,9.059
1.918436,-0.5408,-8.6579,-2.3576,8.989
1.920577,-0.8618,-8.6276,-2.0144,8.902
1.934602,-0.828,-8.4208,-1.29,8.559
1.937557,-0.2111,-7.0817,-1.1049,7.171
1.94878,1.336,-4.2191,-1.2657,4.603
1.960099,3.079,0.972,-1.6546,3.628
1.967388,4.4134,9.2439,-2.0137,10.439
1.977188,3.621,26.5654,-2.4959,26.927
2.001313,4.7992,30.3627,-1.5451,30.778
2.005022,8.3947,30.5951,2.2879,31.808
2.007383,10.5138,30.6513,8.358,33.465
2.015906,9.7781,30.7248,15.3326,35.703
2.030445,7.8402,30.7967,18.6706,36.858
2.049705,2.7031,30.8455,20.0347,36.88
2.05211,-3.8925,30.8671,23.7781,39.158
2.06516,-8.584,30.8477,23.9063,39.96
2.068082,-9.8017,28.9684,20.4031,36.763
2.085199,-9.9473,23.5125,16.1516,30.21
2.090121,-9.5306,18.102,11.8835,23.659
2.123839,-8.3009,12.2256,8.7532,17.175
2.127053,-4.6433,4.3724,4.7131,7.93
2.129462,-0.097,-4.6269,0.6382,4.672
2.131911,3.8224,-12.4714,-3.1505,13.419
2.13633,4.6821,-16.2209,-4.9529,17.595
2.145822,3.8029,-16.4425,-5.1147,17.635
2.157646,3.1558,-16.0427,-6.9657,17.772
2.193743,2.6524,-13.1145,-9.387,16.344
2.198059,2.5606,-13.159,-9.2892,16.31
2.20058,2.0382,-11.8164,-9.0929,15.049
2.203158,1.4339,-11.0681,-9.0049,14.34
2.212099,0.3602,-10.7933,-8.1674,13.54
2.215997,0.3778,-10.8426,-6.8618,12.837
2.232508,0.6698,-11.3068,-5.1557,12.445
2.236235,1.4272,-11.8445,-4.2798,12.675
2.245894,1.8567,-11.8757,-4.3603,12.786
2.255925,1.5337,-11.3379,-4.9882,12.481
2.270948,0.7923,-10.3826,-5.2745,11.672
2.277387,0.0086,-9.2889,-5.4904,10.79
2.298875,-0.6265,-8.3736,-5.3496,9.956
2.302209,-1.0508,-7.606,-5.1583,9.25
2.306728,-1.2598,-7.3302,-5.1527,9.048
2.316022,-1.2902,-7.6125,-5.1758,9.295
2.326017,-1.2065,-8.1309,-5.0174,9.63
2.335955,-1.4594,-8.293,-4.2527,9.433
2.346283,-1.8044,-8.2738,-3.3472,9.106
2.355958,-1.8797,-8.3116,-2.6689,8.93
2.370169,-1.5915,-8.3859,-2.3637,8.857
2.376131,-1.0583,-8.5361,-2.4105,8.933
2.405097,-0.4735,-8.7159,-2.9707,9.22
2.407926,-0.0265,-8.8471,-3.6614,9.575
2.409543,0.2896,-8.8003,-4.3431,9.818
2.425677,0.3783,-8.8132,-4.7369,10.013
2.428718,0.4076,-9.0081,-4.5836,10.115
2.445438,0.2219,-9.1859,-3.0378,9.678
2.448069,-0.0511,-9.032,-2.9288,9.495
2.455674,-0.5835,-8.3571,-3.2375,8.981
2.465916,-1.3699,-7.3012,-3.4316,8.183
2.475993,-2.7526,-5.5774,-2.7724,6.81
2.485787,-3.5059,-3.9363,-2.1235,5.683
2.514049,-2.1404,-4.9687,-3.0973,6.234
2.517336,0.1838,-6.1901,-2.2439,6.587
2.518931,0.4403,-3.8092,1.4254,4.091
2.52604,-0.1363,1.9907,4.7868,5.186
2.535936,0.7361,10.2248,4.1686,11.066
2.546322,2.3654,19.0606,1.2569,19.248
2.556192,1.594,25.831,0.4695,25.884
2.565688,0.028,28.9356,6.231,29.599
2.576207,0.6476,30.4621,14.2282,33.627
2.58634,2.9797,30.8943,18.8485,36.313
2.617733,4.2798,30.9152,18.5109,36.287
2.62073,3.8153,30.9433,16.5954,35.319
2.623873,0.2392,30.9979,19.2325,36.48
2.626437,-3.3995,31.0667,23.0726,38.846
2.637523,-5.5588,31.09,24.3914,39.905
2.655753,-6.7579,27.8052,23.9372,37.307
2.658326,-6.5757,22.4795,21.5251,31.81
2.66769,-5.7987,16.4943,17.3583,24.637
2.699554,-0.9606,1.5431,6.2446,6.504
2.702764,1.2806,-4.7097,1.6282,5.145
2.70485,3.0329,-10.0161,-2.748,10.82
2.707618,4.3864,-14.8119,-5.9606,16.558
2.715942,5.4028,-18.7347,-7.4639,20.878
2.726028,6.2518,-21.3788,-7.8108,23.604
2.735984,6.3594,-21.3773,-7.6223,23.57
2.745862,5.085,-18.8199,-8.9888,21.467
2.756093,3.273,-15.3851,-11.2605,19.345
2.767521,1.2071,-11.8382,-13.0051,17.628
2.798182,-0.2954,-9.7953,-12.0462,15.529
2.800883,-0.2481,-10.1539,-10.636,14.707
2.803643,0.1887,-11.1288,-9.7457,14.794
2.80585,-0.8139,-10.785,-7.7433,13.302
2.817916,-2.0563,-10.2048,-5.7886,11.911
2.83734,-2.7466,-9.8455,-4.8245,11.303
2.840024,-3.2049,-9.2886,-4.4386,10.782
2.850977,-3.7079,-8.3387,-4.1719,10.034
2.855785,-4.1978,-7.0835,-3.5016,8.948
2.865992,-4.242,-6.2953,-3.0632,8.186
2.881141,-3.9949,-6.1144,-3.2682,8.002
2.886475,-3.8133,-6.0423,-3.2728,7.859
2.912416,-3.2128,-6.2785,-2.8338,7.601
2.914954,-0.3862,-8.2895,-2.5057,8.669
2.917544,1.5381,-9.8383,-2.3736,10.237
2.928413,3.2436,-11.5386,-2.5519,12.255
2.935908,3.695,-12.4172,-1.9867,13.107
2.946011,2.6971,-11.9625,-1.2465,12.326
2.956031,1.1281,-10.5375,-1.3867,10.688
2.966545,-0.2109,-9.2822,-2.4748,9.609
3.001238,-0.8919,-8.6945,-3.3443,9.358
3.004446,-0.8426,-8.6328,-3.5292,9.364
3.007931,-0.6399,-8.814,-3.8015,9.62
3.010186,-0.51,-9.1097,-4.3707,10.117
3.016093,-0.1356,-9.6546,-4.6254,10.706
3.02953,0.2907,-10.2991,-4.487,11.238
3.035952,0.2219,-10.1535,-3.8728,10.869
3.045737,-0.5836,-9.1084,-2.9248,9.584
3.056229,-1.8062,-7.633,-2.4049,8.204
3.06579,-3.1552,-5.8321,-3.5739,7.533
3.095485,-3.5954,-4.9187,-4.1579,7.376
3.098809,-3.1601,-4.2021,-2.6313,5.879
3.101377,-1.9145,-2.3897,-1.2622,3.312
3.108958,-0.263,2.4396,0.1654,2.459
3.116929,2.096,10.6389,0.7962,10.873
3.126784,3.3793,18.5839,-0.9649,18.913
3.136631,2.625,26.7662,2.4762,27.008
3.14612,4.4142,29.4377,7.6194,30.727
3.161567,5.1902,30.6552,10.6355,32.86
3.166866,5.1496,30.6896,11.7286,33.256
3.190095,2.2673,30.7172,14.8598,34.198
3.192945,-2.0843,30.7443,20.4354,36.975
3.195933,-6.1209,30.7702,21.1603,37.842
3.205877,-9.625,30.7797,17.163,36.532
3.215909,-10.9869,30.7737,13.8331,35.484
3.225916,-10.1614,28.0799,11.6228,32.044
3.235939,-7.269,21.5521,8.9557,24.445
3.245708,-3.4796,12.5486,6.7292,14.658
3.260056,-0.036,4.6191,4.7245,6.607
3.267267,0.966,-0.879,1.7375,2.174
3.288953,1.0056,-4.6368,-0.5957,4.782
3.291392,1.4641,-8.0948,-1.953,8.455
3.296475,2.693,-11.9203,-2.4908,12.472
3.310727,4.0807,-14.4861,-2.6145,15.275
3.316001,3.7757,-14.9504,-3.1176,15.732
3.330231,2.0181,-13.0331,-5.9233,14.458
3.336619,-0.2005,-10.1123,-8.1968,13.019
3.345857,-1.7159,-8.1903,-8.3901,11.85
3.360792,-2.6709,-7.4393,-7.3044,10.762
3.366172,-3.5124,-7.2426,-5.3973,9.691
3.395842,-3.9937,-7.5441,-3.8704,9.372
3.398674,-4.2816,-7.7485,-3.7013,9.595
3.400712,-4.25,-7.8275,-2.8621,9.355
3.409507,-3.6696,-8.0134,-3.1324,9.354
3.41589,-2.9137,-8.3058,-3.9144,9.633
3.425771,-2.3993,-8.6173,-4.4763,10.003
3.437668,-2.8623,-8.448,-5.0622,10.256
3.445768,-3.6409,-7.51,-5.5253,10.009
3.455972,-3.6645,-7.1692,-5.5566,9.783
3.466254,-2.8735,-8.1085,-4.4946,9.706
3.47592,-1.8623,-9.2293,-2.9949,9.88
3.506143,-0.8851,-10.4671,-2.5554,10.811
3.509087,-0.5518,-11.1189,-3.2578,11.599
3.511765,-0.7203,-10.6188,-3.3241,11.15
3.515905,-1.354,-9.889,-3.3391,10.525
3.52605,-1.4338,-8.7784,-4.2351,9.851
3.539742,-2.2694,-7.7229,-4.1933,9.076
3.545784,-2.387,-6.8581,-2.34,7.629
3.558312,-1.7616,-7.1253,-2.4114,7.726
3.565934,-1.3286,-7.6411,-2.1987,8.061
3.57628,-1.0337,-7.9221,-1.2092,8.08
3.606915,-0.3231,-7.9299,-2.131,8.218
3.609197,0.0931,-8.3242,-1.9813,8.557
3.610812,0.6101,-9.3975,-0.3834,9.425
3.616513,0.4567,-9.4759,-2.5249,9.817
3.629055,0.459,-9.3675,-6.5743,11.453
3.648389,-0.7878,-8.3889,-5.014,9.805
3.649981,-1.7003,-7.4182,-2.8203,8.116
3.666674,-1.7739,-6.4263,-3.0745,7.341
3.668384,-1.3256,-5.3862,-2.7867,6.208
3.675836,-1.1201,-2.5303,-2.2391,3.56
3.688308,-1.1733,1.3982,-1.1167,2.14
3.696211,-0.097,4.3788,-0.7291,4.44
3.71354,0.6064,7.2697,-1.396,7.427
