time,ax,ay,az,atotal
0.0,0.34,1.35,-0.16,1.4
0.01,0.28,1.11,-0.52,1.25
0.02,0.1,0.9,-0.3,0.95
0.03,0.01,0.87,0.28,0.91
0.04,0.51,1.4,0.45,1.56
0.05,0.78,1.97,-0.09,2.12
0.061,0.18,1.1,-0.23,1.14
0.071,-0.44,0.91,0.57,1.16
0.081,-0.57,0.35,0.8,1.04
0.091,-0.65,-0.67,0.16,0.94
0.101,0.02,-1.22,-0.74,1.43
0.111,0.51,-1.54,-0.43,1.68
0.121,0.5,-1.57,0.48,1.72
0.131,0.14,-1.44,-0.23,1.47
0.141,-0.48,-0.9,-2.63,2.82
0.151,-0.41,-2.45,-2.61,3.6
0.161,-0.05,-3.63,-1.72,4.01
0.171,0.23,-2.57,-2.07,3.31
0.181,0.82,-2.24,-2.09,3.18
0.191,1.27,-2.48,-1.35,3.09
0.201,1.78,-2.07,-0.87,2.87
0.211,2.48,-1.72,-0.85,3.13
0.222,2.99,-1.71,-1.24,3.66
0.232,3.18,-1.91,-2.03,4.23
0.242,2.77,-1.92,-2.6,4.26
0.252,2.0,-1.37,-2.75,3.66
0.262,1.22,-0.62,-2.49,2.84
0.272,0.05,0.15,-2.05,2.06
0.282,-0.6,0.09,-0.62,0.87
0.292,-3.72,-0.79,3.16,4.94
0.302,-4.84,1.17,5.32,7.29
0.312,-1.77,3.28,4.12,5.56
0.322,-0.13,4.06,2.81,4.94
0.332,0.12,2.86,2.49,3.8
0.343,-0.13,2.34,2.22,3.23
0.353,-0.43,2.92,2.15,3.66
0.363,-0.6,3.19,3.4,4.7
0.373,-0.88,3.5,3.89,5.31
0.383,-1.29,3.33,4.03,5.38
0.393,-0.46,2.78,3.98,4.87
0.403,0.37,1.82,3.46,3.92
0.413,0.38,0.42,3.14,3.19
0.423,0.4,-0.62,2.58,2.69
0.433,1.53,-0.59,2.55,3.03
0.443,1.21,-1.37,1.19,2.18
0.453,-0.84,-3.11,-3.12,4.48
0.463,-1.36,-3.78,-5.79,7.04
0.474,-0.75,-3.76,-4.31,5.77
0.484,1.06,-2.66,-1.18,3.1
0.494,2.25,-2.16,-1.0,3.27
0.504,2.32,-3.07,-2.08,4.37
0.514,1.99,-2.88,-2.6,4.35
0.524,2.25,-2.44,-2.02,3.89
0.534,2.43,-3.13,-1.94,4.41
0.544,1.95,-5.38,-1.83,6.01
0.554,2.05,-4.19,-1.81,5.01
0.564,1.99,-2.61,-1.64,3.67
0.574,1.67,-1.19,-1.14,2.35
0.584,1.47,-0.43,-1.19,1.95
0.594,1.39,0.5,-0.46,1.54
0.604,0.37,2.75,0.69,2.86
0.615,-2.4,5.25,2.1,6.14
0.625,-5.07,5.7,2.74,8.1
0.635,-4.4,5.88,2.38,7.72
0.645,-1.92,6.3,2.29,6.97
0.655,-0.57,7.15,1.75,7.38
0.665,-0.76,7.45,1.98,7.74
0.675,-0.97,6.41,3.28,7.27
0.685,0.43,5.11,4.11,6.58
0.695,1.31,3.84,3.73,5.51
0.705,0.13,2.23,2.73,3.53
0.715,-0.65,-0.1,2.07,2.17
0.725,-0.9,-2.08,0.64,2.36
0.735,-0.2,-3.25,-0.08,3.26
0.746,0.62,-4.03,-0.64,4.13
0.756,0.98,-4.1,-1.65,4.52
0.766,1.33,-3.83,-2.66,4.85
0.776,1.8,-3.87,-3.27,5.37
0.786,2.44,-3.87,-3.95,6.04
0.796,2.83,-4.1,-5.01,7.06
0.806,2.73,-4.48,-5.4,7.53
0.816,1.99,-4.74,-5.45,7.49
0.826,1.51,-4.17,-5.4,6.99
0.836,1.43,-3.45,-5.14,6.35
0.846,1.46,-3.21,-4.08,5.39
0.856,0.55,-3.82,-4.41,5.86
0.866,0.15,-4.01,-4.19,5.8
0.876,0.3,-4.46,-3.14,5.46
0.886,0.39,-4.93,-2.93,5.74
0.897,0.43,-3.75,-1.92,4.23
0.907,-0.68,-1.05,-1.36,1.85
0.917,-1.03,2.53,-0.12,2.74
0.927,-2.32,5.43,0.18,5.91
0.937,-3.92,7.38,0.83,8.39
0.947,-4.88,10.15,1.72,11.39
0.957,-5.27,12.35,2.96,13.75
0.967,-5.04,12.22,3.73,13.74
0.977,-3.7,10.25,3.91,11.58
0.987,-2.34,8.97,4.51,10.31
0.997,-1.75,8.11,5.07,9.73
1.007,-2.19,6.89,5.08,8.84
1.017,-1.76,5.59,4.48,7.38
1.028,-0.85,3.96,3.93,5.65
1.038,-0.95,2.42,2.38,3.52
1.048,-1.69,0.73,1.29,2.24
1.058,-1.15,-0.64,0.37,1.37
1.068,0.08,-2.18,-0.5,2.24
1.078,1.15,-3.46,-1.82,4.07
1.088,2.16,-4.47,-2.68,5.65
1.098,3.03,-5.31,-3.28,6.93
1.108,3.53,-5.54,-3.78,7.58
1.118,3.85,-5.39,-3.97,7.73
1.128,4.26,-5.22,-4.55,8.13
1.138,4.07,-5.39,-4.55,8.14
1.148,4.0,-5.56,-4.38,8.13
1.158,4.59,-5.49,-4.9,8.67
1.169,3.82,-5.29,-4.4,7.87
1.178,3.32,-4.67,-3.88,6.92
1.189,2.93,-3.97,-3.36,5.97
1.199,2.31,-3.13,-2.87,4.84
1.209,1.76,-2.17,-2.51,3.75
1.219,1.45,-0.94,-1.92,2.58
1.229,0.84,0.48,-0.63,1.15
1.239,-0.19,2.46,0.76,2.59
1.249,-1.37,4.87,1.78,5.36
1.259,-2.22,7.02,2.53,7.79
1.269,-2.91,8.83,3.36,9.89
1.279,-3.83,10.88,4.67,12.45
1.289,-3.42,10.87,5.45,12.63
1.299,-2.45,9.93,5.14,11.45
1.31,-1.27,8.41,4.25,9.51
1.32,0.39,6.4,3.71,7.41
1.33,1.54,4.42,3.66,5.94
1.34,2.0,2.35,3.61,4.75
1.35,2.46,0.68,3.36,4.22
1.36,2.81,-0.75,2.82,4.05
1.37,2.97,-2.26,1.83,4.16
1.38,3.25,-3.85,0.39,5.06
1.39,3.66,-5.24,-1.07,6.48
1.4,3.62,-6.02,-1.85,7.27
1.41,3.22,-6.12,-2.36,7.3
1.42,2.91,-5.93,-3.1,7.3
1.43,2.52,-5.33,-3.6,6.91
1.44,2.02,-5.6,-3.75,7.04
1.451,1.84,-5.46,-3.58,6.78
1.461,1.72,-5.29,-3.79,6.73
1.471,1.42,-5.35,-3.81,6.72
1.481,1.0,-5.16,-3.43,6.28
1.491,0.34,-4.84,-2.94,5.68
1.501,-0.13,-3.95,-2.16,4.51
1.511,-0.62,-2.6,-1.46,3.04
1.521,-1.26,-0.68,-0.57,1.54
1.531,-1.89,1.35,0.51,2.38
1.541,-2.45,2.89,1.21,3.98
1.551,-2.91,4.37,1.8,5.55
1.561,-3.27,5.89,2.32,7.13
1.571,-3.54,7.32,2.62,8.54
1.582,-3.56,8.48,2.72,9.59
1.592,-3.26,8.94,2.85,9.94
1.602,-2.75,8.72,3.01,9.62
1.612,-2.09,7.95,3.04,8.76
1.622,-1.43,6.85,2.93,7.59
1.632,-1.02,5.85,2.57,6.47
1.642,-0.87,4.9,2.35,5.5
1.652,-0.82,3.63,2.2,4.33
1.662,-0.73,1.97,1.78,2.75
1.672,-0.41,0.09,1.14,1.21
1.682,0.16,-1.75,0.4,1.8
1.692,0.58,-3.4,-0.35,3.46
1.702,1.05,-4.86,-1.05,5.08
1.712,1.5,-5.99,-1.56,6.37
1.723,1.69,-6.47,-2.38,7.1
1.733,1.73,-6.85,-3.22,7.76
1.743,1.83,-6.67,-3.87,7.92
1.753,1.96,-6.49,-4.45,8.11
1.763,2.13,-6.46,-4.88,8.37
1.773,2.26,-6.58,-5.26,8.72
1.783,2.4,-6.58,-5.36,8.82
1.793,2.28,-6.07,-5.28,8.36
1.803,2.12,-5.19,-5.06,7.56
1.813,1.87,-4.11,-4.51,6.39
1.823,1.25,-2.54,-3.75,4.7
1.833,0.5,-0.86,-2.78,2.95
1.843,-0.08,0.66,-1.63,1.76
1.854,-0.58,2.72,-0.62,2.85
1.864,-1.21,5.21,0.18,5.35
1.874,-1.8,7.64,0.92,7.9
1.884,-2.25,9.81,1.68,10.2
1.894,-2.2,11.19,2.32,11.64
1.904,-1.64,11.06,2.48,11.46
1.914,-0.57,9.81,2.28,10.08
1.924,0.73,8.34,1.78,8.56
1.934,1.59,6.62,1.58,6.98
1.944,2.09,5.12,1.76,5.8
1.954,2.5,3.75,1.89,4.89
1.964,2.62,2.21,2.05,3.99
1.974,2.57,0.59,1.92,3.26
1.984,2.29,-0.86,1.51,2.88
1.994,1.76,-2.1,0.96,2.91
2.005,1.29,-3.4,0.36,3.65
2.015,1.07,-4.7,-0.37,4.83
2.025,0.94,-5.66,-1.08,5.84
2.035,0.66,-5.99,-1.68,6.26
2.045,0.27,-6.37,-2.25,6.76
2.055,0.07,-6.31,-2.71,6.86
2.065,0.08,-5.99,-3.14,6.76
2.075,0.2,-5.9,-3.62,6.93
2.085,0.25,-5.86,-3.88,7.03
2.095,0.25,-5.77,-3.77,6.89
2.105,0.28,-5.57,-3.65,6.66
2.115,0.14,-5.35,-3.45,6.37
2.125,-0.08,-5.11,-2.92,5.88
2.136,-0.42,-4.59,-2.33,5.16
2.146,-1.1,-3.54,-1.58,4.03
2.156,-1.98,-1.66,-0.44,2.62
2.166,-2.86,0.62,0.74,3.02
2.176,-3.74,2.42,1.44,4.68
2.186,-4.22,3.53,1.83,5.79
2.196,-4.34,4.78,2.18,6.81
2.206,-4.6,6.49,2.56,8.36
2.216,-5.08,8.01,3.12,9.99
2.226,-5.05,9.12,3.34,10.95
2.236,-4.2,9.3,3.0,10.64
2.246,-2.88,8.76,2.61,9.58
2.256,-1.8,7.9,2.4,8.45
2.267,-1.1,6.86,2.43,7.35
2.277,-0.68,5.45,2.59,6.08
2.287,-0.61,4.12,2.88,5.07
2.297,-0.82,2.93,3.09,4.34
2.307,-0.91,1.6,2.99,3.52
2.317,-0.78,0.05,2.68,2.79
2.327,-0.41,-1.88,2.13,2.86
2.337,0.17,-3.97,1.34,4.2
2.347,0.74,-5.65,0.6,5.73
2.357,1.08,-6.83,-0.27,6.92
2.367,1.29,-7.39,-1.07,7.58
2.377,1.4,-7.49,-1.85,7.84
2.387,1.58,-7.38,-2.78,8.04
2.398,1.93,-7.43,-3.71,8.53
2.408,2.3,-7.72,-4.62,9.29
2.418,2.64,-8.09,-5.34,10.05
2.428,2.93,-8.28,-5.73,10.49
2.438,3.05,-8.09,-5.91,10.47
2.448,3.15,-8.73,-5.99,11.05
2.458,3.12,-8.43,-5.88,10.74
2.468,2.46,-6.64,-5.66,9.07
2.478,1.53,-4.31,-5.63,7.26
2.488,0.64,-2.57,-5.46,6.07
2.498,-0.14,-0.87,-4.65,4.74
2.508,-0.79,1.27,-3.65,3.95
2.518,-1.47,3.93,-2.83,5.06
2.528,-2.47,6.94,-1.8,7.59
2.538,-3.47,9.5,-0.69,10.14
2.549,-3.76,11.25,0.29,11.86
2.559,-3.43,12.39,1.12,12.91
2.569,-2.46,12.73,1.89,13.1
2.579,-1.24,12.39,2.65,12.73
2.589,0.31,11.87,3.33,12.33
2.599,2.17,10.82,4.2,11.81
2.609,3.9,9.2,5.42,11.37
2.619,5.15,7.19,5.93,10.65
2.629,5.63,4.6,5.42,9.07
2.639,5.07,2.07,5.15,7.52
2.649,3.66,0.23,4.93,6.15
2.659,2.34,-1.33,4.08,4.88
2.669,1.59,-2.93,2.75,4.32
2.68,1.29,-4.87,1.25,5.19
2.689,1.07,-6.52,0.04,6.61
2.7,0.68,-7.47,-1.3,7.61
2.71,0.3,-7.91,-2.39,8.26
2.72,0.12,-8.07,-3.36,8.74
2.73,-0.13,-7.46,-4.4,8.66
2.74,-0.49,-6.85,-5.33,8.69
2.75,-0.9,-6.48,-5.9,8.81
2.76,-1.16,-6.21,-6.3,8.92
2.77,-1.49,-5.95,-6.58,8.99
2.78,-1.84,-5.55,-6.59,8.81
2.79,-2.12,-4.99,-6.43,8.41
2.8,-2.34,-4.16,-5.96,7.63
2.811,-2.63,-2.72,-5.53,6.7
2.821,-2.8,-1.04,-5.17,5.97
2.83,-2.91,0.44,-4.53,5.4
2.841,-3.13,1.97,-3.83,5.32
2.851,-3.5,3.84,-2.96,5.98
2.861,-3.72,6.0,-1.91,7.31
2.871,-3.76,8.06,-0.83,8.93
2.881,-3.51,9.51,-0.03,10.14
2.891,-2.82,10.07,0.47,10.47
2.901,-2.0,9.64,1.39,9.94
2.911,-1.07,8.6,2.92,9.15
2.921,-0.06,7.55,4.36,8.72
2.931,0.69,6.58,5.57,8.65
2.942,0.92,5.73,6.8,8.94
2.951,0.63,4.81,7.45,8.89
2.962,0.07,3.78,7.43,8.34
2.972,-0.41,2.56,6.93,7.4
2.982,-0.28,0.66,5.83,5.88
2.992,0.35,-1.51,4.7,4.94
3.002,0.81,-3.06,3.48,4.7
3.012,1.18,-4.24,2.31,4.97
3.022,1.55,-4.99,1.41,5.41
3.032,1.87,-5.22,0.5,5.57
3.042,2.06,-5.38,-0.67,5.8
3.052,2.05,-5.5,-1.58,6.08
3.062,1.92,-5.63,-2.33,6.39
3.072,1.82,-5.91,-3.14,6.93
3.082,1.77,-6.2,-3.77,7.47
3.092,1.79,-6.39,-4.23,7.87
3.103,1.75,-6.4,-4.52,8.03
3.113,1.65,-6.22,-4.71,7.97
3.123,1.44,-5.49,-4.69,7.36
3.133,1.19,-4.26,-4.73,6.47
3.143,0.87,-3.15,-4.74,5.76
3.153,0.48,-2.15,-4.13,4.68
3.163,-0.03,-0.91,-3.17,3.3
3.173,-0.62,0.44,-2.26,2.38
3.183,-1.13,1.87,-1.44,2.62
3.193,-1.58,3.29,-0.63,3.71
3.203,-1.79,4.57,0.19,4.91
3.213,-1.95,6.09,1.23,6.51
3.223,-1.99,6.88,2.4,7.55
3.234,-1.39,7.38,3.52,8.29
3.244,-0.36,7.68,4.42,8.87
3.254,0.69,7.51,5.24,9.18
3.264,1.63,6.94,5.72,9.14
3.274,2.48,5.81,5.81,8.58
3.284,3.13,4.27,5.94,7.96
3.294,3.31,2.4,5.92,7.2
3.304,3.12,0.66,5.65,6.49
3.314,2.75,-0.77,5.05,5.8
3.324,2.29,-2.09,4.02,5.08
3.334,1.79,-3.18,2.66,4.52
3.344,1.29,-4.02,1.26,4.4
3.354,0.88,-4.49,-0.1,4.57
3.365,0.69,-4.86,-1.6,5.16
3.374,0.55,-5.1,-3.13,6.01
3.385,0.33,-4.91,-4.38,6.59
3.395,0.05,-4.62,-5.18,6.94
3.405,-0.24,-4.2,-5.78,7.15
3.415,-0.59,-4.19,-6.27,7.57
3.425,-0.6,-4.45,-6.3,7.74
3.435,-0.62,-4.02,-5.97,7.22
3.445,-1.01,-3.28,-5.48,6.47
3.455,-1.58,-1.89,-4.57,5.19
3.465,-2.27,-0.11,-3.6,4.26
3.475,-2.75,1.31,-2.72,4.08
3.486,-2.87,2.34,-1.66,4.06
3.496,-3.01,3.35,-0.76,4.57
3.505,-3.17,4.65,0.03,5.63
3.516,-3.26,6.23,0.66,7.07
3.526,-3.6,7.68,1.34,8.59
3.536,-3.82,8.38,2.08,9.44
3.546,-3.77,8.16,2.67,9.38
3.556,-3.43,7.19,3.24,8.6
3.566,-2.79,6.0,3.6,7.53
3.576,-2.07,4.79,3.84,6.48
3.586,-1.62,3.99,4.39,6.15
3.596,-1.33,3.39,4.8,6.02
3.606,-0.99,2.59,4.44,5.24
3.616,-0.67,1.55,3.54,3.93
3.627,-0.44,0.4,2.55,2.62
3.636,-0.3,-0.69,1.55,1.73
3.646,-0.35,-1.6,0.48,1.71
3.657,-0.27,-2.46,-0.68,2.57
3.667,0.13,-3.32,-2.07,3.92
3.677,0.71,-3.94,-3.15,5.09
3.687,1.11,-4.68,-3.76,6.11
3.697,1.54,-6.0,-4.09,7.42
3.707,2.02,-6.64,-4.27,8.15
3.717,2.42,-7.16,-4.52,8.8
3.727,2.79,-7.37,-4.99,9.33
3.737,2.93,-7.3,-5.21,9.44
3.747,2.77,-7.15,-5.02,9.17
3.757,2.42,-6.65,-4.76,8.53
3.767,2.06,-5.94,-4.34,7.64
3.777,1.76,-5.07,-3.83,6.6
3.788,1.57,-4.0,-3.29,5.41
3.798,1.23,-2.91,-2.44,3.99
3.808,0.89,-1.92,-1.32,2.49
3.818,0.65,-0.95,-0.43,1.23
3.828,0.21,0.47,0.6,0.79
3.838,-0.57,2.6,1.84,3.24
3.848,-1.53,5.15,2.96,6.14
3.858,-2.22,7.35,3.85,8.58
3.868,-2.15,8.82,4.32,10.05
3.878,-1.52,9.44,4.69,10.65
3.888,-0.44,9.11,4.72,10.27
3.898,1.02,8.17,4.28,9.28
3.908,2.51,6.94,4.02,8.4
3.918,3.74,5.22,4.06,7.6
3.929,4.63,3.37,3.96,6.96
3.939,5.0,1.7,3.93,6.59
3.949,4.89,0.24,3.56,6.05
3.959,4.56,-1.04,2.63,5.36
3.969,3.94,-2.06,1.65,4.74
3.979,3.18,-2.94,0.82,4.41
3.989,2.51,-3.93,-0.22,4.67
3.999,2.08,-4.91,-1.24,5.48
4.009,1.82,-5.67,-2.18,6.34
4.019,1.53,-6.05,-3.0,6.92
4.029,1.13,-6.06,-3.54,7.11
4.039,0.69,-5.71,-3.96,6.99
4.049,0.31,-5.12,-4.42,6.77
4.06,0.09,-4.58,-4.79,6.63
4.07,-0.12,-4.13,-4.94,6.44
4.08,-0.43,-3.9,-4.85,6.24
4.09,-0.73,-3.51,-4.44,5.71
4.1,-1.02,-2.86,-3.98,5.0
4.11,-1.34,-1.89,-3.35,4.08
4.12,-1.58,-0.85,-2.7,3.24
4.13,-1.86,0.32,-2.0,2.74
4.14,-2.24,1.07,-1.14,2.73
4.15,-2.54,1.6,-0.04,3.0
4.16,-2.83,2.63,0.81,3.95
4.17,-3.27,3.98,1.27,5.3
4.18,-3.91,5.44,1.77,6.92
4.19,-4.38,6.96,2.48,8.59
4.201,-4.5,7.92,3.16,9.64
4.211,-4.27,7.87,3.29,9.54
4.221,-3.66,7.34,3.36,8.87
4.231,-3.05,6.68,3.42,8.1
4.241,-2.69,5.97,3.42,7.39
4.251,-2.37,5.02,3.51,6.57
4.261,-1.94,3.93,3.54,5.63
4.271,-1.43,2.66,3.41,4.56
4.281,-0.99,1.31,3.12,3.52
4.291,-0.57,0.04,2.74,2.8
4.301,-0.19,-1.02,2.14,2.38
4.311,0.2,-1.79,1.37,2.26
4.321,0.6,-2.4,0.56,2.54
4.332,0.79,-2.95,-0.18,3.06
4.342,0.93,-3.51,-0.82,3.72
4.352,0.97,-4.1,-1.52,4.48
4.362,0.9,-4.58,-2.26,5.19
4.372,0.83,-4.97,-2.86,5.8
4.382,0.72,-5.16,-3.37,6.21
4.392,0.52,-5.15,-3.82,6.43
4.402,0.31,-5.01,-4.2,6.54
4.412,0.21,-4.78,-4.35,6.47
4.422,0.12,-4.22,-4.2,5.96
4.432,0.07,-3.84,-4.05,5.59
4.442,0.2,-3.48,-3.63,5.03
4.452,0.3,-2.58,-2.99,3.96
4.463,0.22,-1.58,-2.23,2.74
4.472,0.02,-0.5,-1.17,1.28
4.483,-0.21,0.74,-0.07,0.77
4.493,-0.44,2.19,0.8,2.37
4.503,-0.82,3.67,1.26,3.96
4.513,-1.07,5.25,1.8,5.65
4.523,-1.32,6.56,2.52,7.15
4.533,-1.63,7.64,3.4,8.52
4.543,-1.6,8.59,4.16,9.67
4.553,-1.03,8.41,4.22,9.46
4.563,0.18,7.23,3.71,8.13
4.573,1.7,5.61,3.14,6.65
4.583,3.12,3.8,2.83,5.68
4.594,4.03,2.13,2.8,5.35
4.603,4.47,0.82,2.53,5.2
4.614,4.61,-0.31,1.6,4.89
4.624,4.62,-1.31,0.36,4.82
4.634,4.56,-2.33,-0.74,5.18
4.644,4.5,-3.54,-1.87,6.02
4.654,4.53,-4.91,-2.86,7.27
4.664,4.21,-5.98,-3.49,8.11
4.674,3.68,-6.13,-3.88,8.13
4.684,3.02,-7.06,-4.37,8.84
4.694,2.49,-7.22,-4.58,8.91
4.704,2.04,-6.93,-5.04,8.81
4.714,1.45,-6.39,-5.46,8.53
4.724,0.83,-5.47,-5.53,7.82
4.735,0.1,-4.71,-5.28,7.08
4.744,-0.55,-4.05,-4.54,6.11
4.755,-0.97,-3.47,-3.73,5.18
4.765,-1.17,-3.13,-3.1,4.56
4.775,-1.09,-2.88,-2.45,3.93
4.785,-0.97,-2.21,-1.73,2.97
4.795,-1.13,-0.87,-0.76,1.61
4.805,-1.28,0.45,0.52,1.46
4.815,-1.24,1.96,1.71,2.89
4.825,-1.36,3.65,2.42,4.58
4.835,-1.38,4.99,2.88,5.92
4.845,-1.55,6.6,3.37,7.57
4.855,-2.29,8.35,3.94,9.51
4.865,-2.96,9.02,4.56,10.53
4.875,-3.44,8.77,5.14,10.73
4.886,-3.64,8.46,5.59,10.78
4.896,-3.89,8.11,6.15,10.9
4.906,-3.99,7.66,6.57,10.86
4.916,-3.78,6.86,6.9,10.44
4.926,-3.42,5.73,7.22,9.82
4.936,-2.67,4.25,6.65,8.33
4.946,-1.63,2.23,5.29,5.97
4.956,-0.78,0.42,3.92,4.02
4.966,0.03,-1.02,2.71,2.89
4.976,0.71,-2.23,1.64,2.86
4.986,1.1,-3.24,0.65,3.48
4.996,1.53,-4.31,-0.75,4.64
5.006,2.15,-5.44,-2.04,6.19
5.017,2.61,-6.55,-3.1,7.71
5.027,2.79,-7.44,-4.11,8.95
5.037,2.95,-7.83,-4.9,9.7
5.047,3.0,-8.12,-5.65,10.34
5.057,3.05,-8.78,-6.31,11.23
5.067,3.1,-8.39,-6.52,11.07
5.077,2.86,-7.76,-6.68,10.63
5.087,2.57,-7.15,-6.58,10.05
5.097,2.4,-6.51,-6.3,9.37
5.107,2.1,-5.71,-5.85,8.44
5.117,1.51,-4.37,-4.89,6.73
5.127,0.67,-2.07,-3.44,4.07
5.138,-0.25,0.27,-1.99,2.03
5.148,-1.06,2.23,-0.85,2.61
5.158,-1.57,3.54,0.07,3.87
5.168,-1.95,4.61,1.21,5.15
5.178,-2.74,7.04,2.48,7.95
5.188,-4.07,10.21,3.62,11.57
5.198,-5.32,12.3,4.73,14.22
5.208,-5.63,13.18,5.42,15.33
5.218,-5.02,12.78,5.5,14.79
5.228,-3.9,11.47,5.1,13.14
5.238,-2.51,9.72,4.77,11.11
5.248,-0.86,7.56,4.5,8.84
5.258,0.56,5.56,4.14,6.96
5.268,1.44,3.97,3.59,5.55
5.278,2.0,2.54,2.63,4.16
5.289,2.22,0.88,1.32,2.72
5.299,2.09,-0.73,0.05,2.21
5.309,1.97,-1.98,-1.17,3.02
5.319,1.91,-3.23,-2.34,4.42
5.329,1.93,-4.62,-3.26,5.97
5.339,2.08,-5.4,-4.0,7.03
5.349,1.99,-6.29,-4.49,7.98
5.359,1.81,-6.92,-4.5,8.45
5.369,1.63,-6.84,-4.62,8.42
5.379,1.5,-6.57,-5.11,8.46
5.389,1.41,-6.23,-5.26,8.27
5.399,1.24,-5.87,-5.12,7.89
5.409,1.01,-5.59,-4.81,7.44
5.419,0.87,-5.41,-4.44,7.06
5.429,0.74,-5.16,-4.0,6.56
5.439,0.51,-4.71,-3.33,5.79
5.45,0.2,-4.26,-2.7,5.05
5.46,-0.08,-3.6,-2.06,4.15
5.47,-0.42,-2.61,-1.15,2.88
5.48,-0.9,-0.97,0.06,1.32
5.49,-1.42,0.81,1.15,2.0
5.5,-2.0,2.16,2.21,3.68
5.51,-2.54,3.19,3.12,5.14
5.52,-2.94,4.64,3.67,6.61
5.53,-3.46,6.37,3.86,8.21
5.54,-4.11,8.03,4.08,9.9
5.551,-4.37,8.91,4.21,10.78
5.561,-4.07,8.82,4.1,10.54
5.57,-3.3,8.11,3.8,9.54
5.581,-2.52,7.45,3.64,8.67
5.591,-2.19,7.08,3.72,8.29
5.601,-2.14,6.51,3.56,7.72
5.611,-1.9,5.37,3.45,6.66
5.621,-1.43,3.81,3.18,5.16
5.631,-0.57,1.81,2.37,3.04
5.641,0.61,-0.42,1.45,1.63
5.651,1.71,-2.24,0.64,2.89
5.661,2.49,-3.56,-0.07,4.35
5.671,3.23,-4.64,-0.98,5.74
5.681,3.8,-5.48,-1.88,6.93
5.691,4.11,-5.84,-2.59,7.59
5.702,4.16,-6.19,-3.36,8.18
5.712,4.11,-6.71,-4.13,8.89
5.722,4.1,-6.62,-4.81,9.15
5.732,4.02,-6.55,-5.4,9.39
5.742,3.93,-6.73,-5.74,9.68
5.752,3.73,-6.73,-5.78,9.62
5.762,3.43,-6.4,-5.75,9.26
5.772,3.1,-6.1,-5.61,8.85
5.782,2.6,-5.03,-5.36,7.79
5.792,1.87,-2.96,-4.88,6.0
5.802,1.07,-0.83,-4.23,4.44
5.812,0.27,0.56,-3.67,3.72
5.822,-0.26,1.32,-3.01,3.3
5.832,-0.71,2.22,-1.89,3.0
5.842,-1.22,4.1,-0.97,4.39
5.853,-2.0,6.78,-0.14,7.07
5.863,-3.09,9.55,0.83,10.07
5.873,-4.06,11.34,2.08,12.22
5.883,-4.32,11.63,3.28,12.83
5.893,-3.57,10.66,4.0,11.94
5.903,-1.89,9.03,4.24,10.16
5.913,-0.17,7.21,4.35,8.42
5.923,1.15,5.47,4.5,7.17
5.933,2.25,3.86,4.55,6.38
5.943,2.85,2.22,4.0,5.39
5.953,3.11,0.58,3.16,4.48
5.963,3.23,-0.99,2.52,4.21
5.973,3.24,-2.57,2.04,4.61
5.984,3.15,-4.05,1.48,5.34
5.994,3.0,-5.33,0.73,6.16
6.004,2.76,-6.28,-0.12,6.86
6.014,2.3,-6.64,-0.96,7.09
6.024,1.61,-6.45,-1.91,6.92
6.034,0.87,-6.05,-2.87,6.75
6.044,0.28,-5.58,-3.68,6.69
6.054,-0.07,-5.26,-4.3,6.79
6.064,-0.37,-5.28,-4.73,7.1
6.074,-0.49,-5.42,-4.9,7.32
6.084,-0.55,-5.32,-4.85,7.22
6.094,-0.68,-5.19,-4.7,7.04
6.104,-0.82,-4.76,-4.36,6.5
6.115,-1.09,-3.61,-3.83,5.37
6.125,-1.48,-1.86,-3.25,4.02
6.135,-2.0,-0.04,-2.33,3.07
6.145,-2.47,1.6,-1.26,3.2
6.155,-2.87,2.59,-0.12,3.87
6.165,-3.1,3.24,0.98,4.59
6.175,-3.19,4.08,1.57,5.41
6.185,-3.29,5.12,1.85,6.36
6.195,-3.44,6.03,2.03,7.23
6.205,-3.39,6.41,2.27,7.6
6.215,-3.22,6.25,2.65,7.51
6.225,-2.96,6.05,2.94,7.35
6.235,-2.79,6.09,3.23,7.44
6.245,-2.78,6.27,3.66,7.77
6.256,-2.71,6.16,3.66,7.66
6.266,-2.55,5.64,3.66,7.19
6.276,-2.36,4.99,3.78,6.69
6.286,-2.04,4.05,3.39,5.66
6.296,-1.44,2.55,2.7,3.98
6.306,-0.54,0.69,1.94,2.13
6.316,0.4,-0.79,1.16,1.46
6.326,1.17,-1.93,0.45,2.3
6.336,1.74,-2.84,-0.07,3.33
6.346,2.15,-3.72,-0.61,4.34
6.356,2.53,-4.6,-1.37,5.42
6.366,2.71,-5.23,-2.16,6.28
6.376,2.58,-5.37,-2.7,6.54
6.387,2.3,-5.22,-3.09,6.49
6.396,2.1,-5.13,-3.51,6.56
6.407,2.08,-5.16,-3.85,6.77
6.417,2.18,-5.12,-4.02,6.87
6.427,2.18,-4.92,-4.05,6.73
6.437,2.06,-4.4,-3.88,6.22
6.447,1.91,-3.56,-3.51,5.35
6.457,1.73,-2.6,-3.04,4.35
6.467,1.4,-1.73,-2.33,3.21
6.477,1.11,-1.12,-1.52,2.18
6.487,0.91,-0.84,-0.75,1.45
6.497,0.71,-0.28,-0.01,0.76
6.507,0.24,1.06,0.67,1.28
6.518,-0.56,3.0,0.82,3.16
6.527,-1.5,5.19,1.02,5.5
6.538,-2.33,6.86,1.72,7.44
6.548,-2.75,7.83,2.35,8.62
6.558,-2.5,8.45,2.46,9.15
6.568,-1.92,8.31,2.66,8.93
6.578,-1.0,7.47,2.64,7.99
6.588,0.21,6.21,2.35,6.64
6.598,1.32,4.71,2.02,5.29
6.608,1.98,3.15,2.22,4.34
6.618,2.33,1.88,2.31,3.79
6.628,2.43,0.68,1.61,3.0
6.638,2.42,-0.57,0.55,2.55
6.648,2.56,-1.76,-0.44,3.14
6.658,2.32,-3.03,-1.33,4.04
6.669,1.84,-4.12,-2.12,4.98
6.679,1.35,-4.74,-2.73,5.63
6.689,0.94,-4.99,-3.24,6.03
6.699,0.54,-5.0,-3.64,6.21
6.709,0.23,-5.01,-3.96,6.39
6.719,0.09,-4.94,-4.16,6.46
6.729,0.01,-4.76,-4.19,6.34
6.739,-0.13,-4.46,-4.04,6.02
6.749,-0.32,-4.09,-3.78,5.58
6.759,-0.41,-3.57,-3.4,4.95
6.769,-0.37,-3.13,-2.98,4.34
6.779,-0.33,-2.67,-2.48,3.66
6.789,-0.38,-1.95,-1.67,2.6
6.799,-0.62,-0.83,-0.62,1.21
6.81,-1.05,0.53,0.4,1.24
6.82,-1.52,1.29,1.33,2.4
6.83,-1.78,1.92,2.0,3.3
6.84,-1.95,3.14,2.46,4.44
6.85,-2.29,4.44,2.69,5.68
6.86,-2.76,5.38,2.82,6.67
6.87,-2.98,5.79,2.84,7.1
6.88,-2.72,5.9,2.98,7.15
6.89,-2.08,5.83,3.32,7.02
6.9,-1.4,5.69,3.74,6.95
6.91,-0.75,5.29,3.58,6.43
6.92,0.12,4.47,3.25,5.53
6.931,0.78,3.48,3.24,4.82
6.94,1.3,2.26,3.32,4.22
6.951,1.63,0.71,3.17,3.64
6.961,1.72,-0.77,2.53,3.16
6.971,1.95,-1.96,1.5,3.15
6.981,2.14,-3.1,0.68,3.82
6.991,2.27,-4.22,0.06,4.79
7.001,2.35,-4.99,-0.56,5.55
7.011,2.36,-5.58,-1.24,6.19
7.021,2.44,-5.89,-2.01,6.69
7.031,2.46,-5.94,-2.75,7.0
7.041,2.4,-6.2,-3.38,7.46
7.051,2.34,-6.2,-3.89,7.68
7.061,2.29,-6.13,-4.45,7.91
7.071,2.21,-6.12,-4.93,8.16
7.082,2.02,-6.02,-5.2,8.21
7.092,1.73,-5.72,-5.26,7.96
7.102,1.44,-5.4,-5.18,7.62
7.112,1.12,-4.92,-4.9,7.03
7.122,0.62,-3.83,-4.34,5.82
7.132,0.01,-2.36,-3.77,4.45
7.142,-0.62,-1.1,-3.2,3.44
7.152,-1.19,-0.38,-2.29,2.61
7.162,-1.63,0.39,-1.18,2.05
7.172,-1.97,2.01,-0.09,2.81
7.182,-2.52,4.31,0.76,5.05
7.192,-3.37,6.89,1.46,7.81
7.202,-4.19,9.44,2.34,10.59
7.212,-4.64,11.3,3.41,12.68
7.223,-4.29,12.08,4.01,13.43
7.233,-3.25,11.53,4.24,12.71
7.243,-1.82,10.08,4.29,11.11
7.253,-0.48,8.38,4.45,9.5
7.263,0.37,6.55,5.26,8.41
7.273,0.86,4.85,6.06,7.81
7.283,1.16,3.18,5.74,6.66
7.293,1.02,1.29,4.59,4.87
7.303,0.79,-0.26,3.43,3.53
7.313,0.49,-1.11,2.56,2.83
7.323,0.25,-2.02,1.6,2.59
7.333,0.25,-3.03,0.26,3.05
7.343,0.57,-4.11,-1.36,4.37
7.354,0.92,-4.96,-2.59,5.67
7.363,0.91,-5.86,-3.27,6.77
7.374,0.8,-6.52,-3.47,7.42
7.384,0.57,-6.43,-3.64,7.41
7.394,0.15,-5.9,-4.03,7.14
7.404,-0.12,-5.12,-4.44,6.78
7.414,-0.3,-4.55,-4.72,6.56
7.424,-0.58,-4.24,-4.61,6.29
7.434,-0.85,-3.98,-4.32,5.93
7.444,-1.0,-3.76,-4.12,5.67
7.454,-1.09,-3.57,-3.85,5.36
7.464,-1.26,-3.14,-3.56,4.91
7.474,-1.45,-2.45,-3.26,4.33
7.484,-1.6,-1.77,-2.84,3.71
7.494,-1.8,-1.14,-2.26,3.11
7.505,-1.98,-0.51,-1.59,2.6
7.515,-2.15,0.21,-0.99,2.38
7.525,-2.22,1.29,-0.7,2.66
7.535,-2.23,2.54,-0.56,3.43
7.545,-2.4,3.89,-0.21,4.58
7.555,-2.79,5.68,0.43,6.34
7.565,-3.08,7.66,1.05,8.33
7.575,-2.96,8.64,1.92,9.34
7.585,-2.45,8.7,2.73,9.44
7.595,-1.67,8.52,3.18,9.25
7.605,-0.92,8.05,3.42,8.79
7.615,-0.42,7.48,3.64,8.33
7.625,-0.13,6.6,4.35,7.9
7.636,0.07,5.29,5.29,7.48
7.646,0.39,3.53,5.78,6.79
7.656,0.67,1.58,5.9,6.14
7.666,0.85,-0.03,5.69,5.76
7.676,0.88,-1.25,5.23,5.45
7.686,0.82,-2.22,4.56,5.14
7.696,0.68,-3.01,3.67,4.79
7.706,0.56,-3.62,2.66,4.52
7.716,0.61,-4.15,1.53,4.46
7.726,0.76,-4.75,0.34,4.82
7.736,0.81,-5.15,-0.77,5.27
7.746,0.88,-5.48,-1.84,5.85
7.756,1.01,-5.82,-2.84,6.56
7.767,1.13,-6.0,-3.76,7.17
7.777,1.2,-6.13,-4.55,7.73
7.787,1.27,-6.15,-5.22,8.16
7.797,1.3,-6.11,-5.75,8.49
7.807,1.29,-5.98,-6.04,8.59
7.817,1.16,-5.69,-5.95,8.31
7.827,1.05,-5.17,-5.75,7.8
7.837,0.99,-4.41,-5.53,7.14
7.847,0.96,-3.44,-5.12,6.25
7.857,0.94,-2.38,-4.62,5.28
7.867,0.84,-1.55,-3.95,4.33
7.877,0.87,-0.81,-3.33,3.53
7.887,0.93,0.22,-2.59,2.76
7.897,0.84,1.61,-1.79,2.55
7.908,0.58,2.91,-1.02,3.14
7.918,0.27,4.21,-0.52,4.25
7.928,0.01,5.48,0.08,5.48
7.938,-0.09,6.72,1.07,6.81
7.948,0.01,7.64,2.27,7.97
7.958,0.85,7.89,2.88,8.45
7.968,2.57,7.15,2.58,8.02
7.978,4.05,5.8,2.96,7.67
7.988,4.68,4.36,4.48,7.81
7.998,5.02,2.85,6.03,8.35
8.008,5.14,1.47,6.36,8.31
8.018,5.07,-0.09,5.55,7.52
8.028,4.72,-1.19,4.67,6.75
8.038,3.88,-1.84,4.23,6.03
8.049,2.76,-2.69,3.45,5.17
8.059,2.2,-3.08,2.5,4.54
8.069,1.67,-3.69,1.42,4.29
8.079,1.27,-4.24,0.11,4.43
8.089,0.88,-4.54,-0.92,4.71
8.099,0.41,-4.55,-1.83,4.93
8.109,-0.01,-4.33,-2.66,5.09
8.119,-0.46,-4.01,-3.43,5.29
8.129,-0.91,-3.75,-4.02,5.58
8.139,-1.28,-3.54,-4.34,5.75
8.149,-1.55,-3.5,-4.51,5.92
8.159,-1.72,-3.61,-4.58,6.08
8.17,-1.84,-3.68,-4.64,6.2
8.179,-1.99,-3.51,-4.64,6.15
8.19,-2.16,-2.92,-4.39,5.69
8.2,-2.36,-2.19,-3.92,5.07
8.21,-2.55,-1.2,-3.27,4.31
8.22,-2.57,0.05,-2.79,3.79
8.23,-2.49,0.95,-2.25,3.48
8.24,-2.5,1.6,-1.33,3.26
8.25,-2.77,2.72,-0.33,3.9
8.26,-3.18,4.36,0.47,5.42
8.27,-3.62,5.78,1.06,6.9
8.28,-4.02,6.96,1.75,8.23
8.29,-4.16,8.21,2.63,9.58
8.3,-4.06,9.13,3.72,10.66
8.311,-3.54,9.17,4.64,10.87
8.32,-2.71,8.75,5.05,10.46
8.331,-1.98,7.92,5.44,9.81
8.341,-1.35,6.63,6.16,9.15
8.351,-0.54,4.88,6.64,8.26
8.361,0.31,2.74,6.8,7.34
8.371,0.91,0.92,6.49,6.62
8.381,1.2,-0.48,5.37,5.52
8.391,1.36,-1.59,3.99,4.51
8.401,1.5,-2.47,2.61,3.89
8.411,1.84,-3.27,1.19,3.94
8.422,2.17,-3.93,-0.09,4.49
8.431,2.58,-4.51,-1.2,5.34
8.441,2.89,-5.04,-1.92,6.11
8.451,2.95,-5.98,-2.66,7.18
8.462,3.04,-6.28,-3.1,7.64
8.472,2.95,-6.45,-3.64,7.97
8.482,2.78,-6.54,-4.32,8.31
8.492,2.65,-6.58,-4.94,8.64
8.502,2.5,-6.78,-5.27,8.94
8.512,2.29,-6.93,-5.25,8.99
8.522,2.09,-6.82,-5.2,8.83
8.532,1.78,-6.41,-5.11,8.39
8.542,1.31,-5.26,-4.6,7.11
8.552,0.87,-3.4,-3.9,5.24
8.562,0.41,-1.92,-3.36,3.89
8.572,0.13,-1.01,-2.94,3.11
8.583,0.16,-0.51,-2.3,2.36
8.592,0.14,0.45,-1.53,1.6
8.603,-0.09,2.21,-0.8,2.35
8.613,-0.54,4.31,-0.46,4.36
8.623,-1.23,6.43,-0.34,6.55
8.633,-2.2,8.47,0.28,8.76
8.643,-2.92,10.1,1.16,10.57
8.653,-2.82,10.37,1.52,10.85
8.663,-1.99,9.46,1.46,9.77
8.673,-1.06,8.19,1.4,8.38
8.683,-0.16,6.72,1.26,6.83
8.693,0.26,5.49,1.62,5.73
8.704,0.34,4.62,1.73,4.94
8.713,-0.23,1.24,1.0,1.61
8.723,-0.43,-1.28,3.19,3.46
8.734,0.16,-0.11,0.45,0.49
8.744,-1.36,-0.92,-0.53,1.73
8.754,-2.51,-2.26,-0.42,3.4
8.764,-1.67,-2.81,-1.21,3.49
8.774,-1.32,-3.46,-2.6,4.53
8.784,-1.14,-3.91,-3.32,5.25
8.794,-0.94,-4.16,-3.33,5.41
8.804,-0.44,-4.35,-3.39,5.53
8.814,-0.79,-4.45,-3.84,5.93
8.824,-1.35,-4.22,-3.93,5.92
8.834,-1.76,-3.75,-3.5,5.42
8.844,-1.53,-3.16,-2.84,4.52
8.854,-2.44,-3.24,-3.19,5.16
8.865,-2.88,-3.36,-3.5,5.64
8.875,-2.05,-2.62,-3.07,4.52
8.885,-1.57,-2.1,-2.66,3.73
8.895,-0.97,-1.57,-2.15,2.83
8.905,-0.57,-0.76,-0.98,1.36
8.915,-0.56,-0.06,0.3,0.63
8.925,-0.66,0.12,1.18,1.36
8.935,-0.4,0.01,1.93,1.97
8.945,0.11,0.47,2.72,2.76
8.955,0.43,1.48,3.1,3.47
8.966,0.24,2.5,3.51,4.32
8.975,0.05,3.25,3.83,5.02
8.985,-1.1,3.37,4.27,5.55
8.995,-2.9,3.39,3.62,5.74
9.005,-2.94,3.46,3.04,5.46
9.016,-1.72,3.07,2.82,4.51
9.026,-0.31,2.86,4.43,5.28
9.036,-1.75,2.24,4.66,5.45
9.046,-3.04,1.85,4.45,5.7
9.056,-2.15,1.8,4.37,5.19
9.066,-1.23,1.39,3.32,3.8
9.076,-0.46,1.07,1.81,2.15
9.086,-0.01,0.62,0.41,0.75
9.096,1.14,0.7,0.07,1.34
9.106,1.51,0.92,-0.37,1.8
9.116,2.54,0.49,-0.73,2.69
9.127,4.26,-0.34,0.01,4.28
9.136,3.13,-0.47,0.25,3.17
9.147,0.81,-0.45,-0.52,1.06
9.157,1.36,-0.43,-1.86,2.34
9.167,1.6,-0.97,-2.14,2.84
9.177,1.73,-1.43,-2.32,3.23
9.187,2.0,-1.93,-2.72,3.89
9.197,2.21,-2.23,-2.91,4.28
9.207,2.18,-1.99,-2.62,3.94
9.217,1.72,-2.3,-2.43,3.76
9.227,2.05,-2.34,-2.49,3.99
9.237,2.39,-1.65,-2.45,3.8
9.247,2.26,-1.74,-1.5,3.22
9.257,1.29,-0.48,-1.32,1.9
9.267,1.88,-0.46,-1.0,2.18
9.277,2.76,-1.08,0.54,3.01
9.288,2.42,-0.63,1.77,3.06
9.298,1.41,0.16,1.82,2.31
9.308,0.67,1.18,0.92,1.64
9.318,0.34,2.03,-0.01,2.06
9.328,-0.04,3.22,-0.32,3.24
9.338,-1.08,4.64,-0.13,4.77
9.348,-1.17,4.22,0.49,4.41
9.358,-1.1,4.06,1.76,4.56
9.368,-1.07,4.5,3.24,5.64
9.378,-0.99,4.64,4.02,6.22
9.389,-1.1,4.5,2.93,5.48
9.398,-0.46,3.53,2.02,4.09
9.409,0.03,2.84,1.98,3.46
9.419,0.18,2.13,1.99,2.93
9.429,0.14,1.11,1.9,2.21
9.439,0.18,-0.01,1.27,1.28
9.449,0.46,-0.82,0.23,0.97
9.459,0.66,-1.15,-1.02,1.67
9.469,0.88,-2.19,-1.37,2.73
9.479,0.94,-2.92,-2.04,3.68
9.489,0.39,-3.21,-2.71,4.22
9.499,0.31,-3.25,-2.78,4.29
9.509,0.68,-3.03,-2.86,4.23
9.519,0.53,-3.08,-3.0,4.33
9.529,0.02,-3.23,-3.16,4.51
9.54,-0.42,-3.23,-2.96,4.4
9.55,-0.33,-2.9,-2.84,4.07
9.56,-0.25,-2.48,-2.47,3.51
9.57,-0.13,-2.2,-1.24,2.53
9.58,-0.25,-1.59,-0.53,1.69
9.59,-0.5,-0.9,-0.23,1.06
9.6,-0.57,-0.28,-0.02,0.63
9.61,-0.8,0.2,0.42,0.92
9.62,-0.98,0.57,0.78,1.37
9.63,-0.97,0.98,1.0,1.7
9.64,-1.22,1.59,1.2,2.33
9.65,-2.07,2.23,0.99,3.2
9.66,-2.68,2.5,0.91,3.77
9.67,-2.54,2.38,1.31,3.72
9.68,-1.85,1.87,1.94,3.27
9.69,-1.43,1.65,1.86,2.87
9.701,-1.12,1.37,1.48,2.31
9.711,-0.95,1.46,1.66,2.41
9.721,-1.03,1.38,2.19,2.79
9.731,-0.93,1.62,2.29,2.95
9.741,-0.9,1.51,2.22,2.83
9.751,-0.75,1.07,1.96,2.35
9.761,-0.5,0.66,1.46,1.68
9.771,-0.23,0.39,0.97,1.07
9.781,0.04,0.01,0.45,0.45
9.791,0.05,-0.27,0.09,0.29
9.801,-0.02,-0.4,-0.15,0.43
9.811,-0.04,-0.64,-0.38,0.75
9.821,-0.03,-1.05,-0.55,1.18
9.832,0.18,-1.28,-1.1,1.7
9.842,0.05,-1.7,-1.48,2.25
9.852,-0.05,-2.12,-1.5,2.6
9.862,-0.03,-2.32,-1.55,2.79
9.872,0.09,-2.41,-1.67,2.93
9.882,0.19,-2.47,-1.76,3.04
9.892,0.24,-2.53,-1.87,3.15
9.902,0.3,-2.59,-1.98,3.27
9.912,0.42,-2.69,-2.06,3.42
9.922,0.53,-2.87,-2.08,3.58
9.932,0.61,-3.02,-1.89,3.62
9.942,0.74,-2.97,-1.64,3.47
9.952,0.83,-2.74,-1.46,3.22
9.963,0.82,-2.42,-1.21,2.82
9.973,0.66,-1.96,-0.92,2.27
9.983,0.36,-1.54,-0.72,1.73
9.993,0.26,-1.07,-0.39,1.17
10.003,0.33,-0.51,-0.12,0.62
10.013,0.4,0.0,0.14,0.42
10.023,0.37,0.37,0.35,0.63
10.033,0.25,0.67,0.47,0.85
10.043,0.04,0.99,0.6,1.16
10.053,-0.06,1.2,0.73,1.41
10.063,0.03,1.2,0.7,1.38
10.073,0.3,1.06,0.2,1.12
10.083,0.41,0.91,-0.03,1.0
10.094,0.34,0.93,0.1,1.0
10.106,-0.42,1.17,-0.35,1.29
10.114,-0.85,1.27,1.49,2.13
10.124,0.06,1.44,1.84,2.33
10.134,0.78,1.23,1.43,2.04
10.144,1.02,0.87,1.17,1.78
10.154,0.94,0.65,1.51,1.89
10.164,0.75,0.42,1.66,1.87
10.174,0.72,0.09,1.6,1.76
10.184,0.85,-0.16,1.29,1.55
10.194,1.23,-0.4,0.62,1.44
10.204,1.07,-0.74,0.75,1.5
