time,ax,ay,az,atotal
0.003395,-1.2394,-0.0111,-2.2616,2.579
0.008007,-1.0091,-0.7804,-1.8272,2.228
0.027788,-0.7901,-1.3258,-2.3631,2.822
0.028686,-0.9354,-1.4448,-2.7609,3.253
0.038145,-0.9856,-1.3727,-2.6254,3.122
0.050996,-0.9986,-1.3315,-2.3611,2.889
0.05822,-0.6967,-1.1561,-2.0764,2.477
0.071117,0.0916,-0.5191,-1.8024,1.878
0.078205,0.5562,0.8138,-1.9903,2.221
0.088085,0.412,2.7887,-1.9119,3.406
0.101869,0.1245,4.9787,-0.466,5.002
0.108146,-0.2692,6.764,2.1111,7.091
0.118147,-0.34,8.4983,4.3311,9.544
0.128234,0.3415,10.3321,4.9496,11.462
0.141549,1.4966,12.2241,4.4309,13.088
0.148303,1.9759,13.9865,3.0358,14.448
0.158592,1.5022,15.9336,1.8985,16.116
0.173264,0.4236,18.3385,0.8504,18.363
0.178249,-1.0583,19.8329,0.1465,19.862
0.1887,-2.2017,20.5117,1.0136,20.654
0.204139,-2.2114,20.6398,1.9911,20.853
0.208229,-1.5402,18.7012,-0.7079,18.778
0.218564,-0.7039,16.6607,-1.1962,16.718
0.234244,0.4495,13.5919,-0.2563,13.602
0.238463,1.6379,10.1314,0.7834,10.293
0.257341,2.239,6.6864,1.7135,7.257
0.258745,1.8803,3.5727,2.0058,4.508
0.269914,0.9349,0.7456,1.3222,1.783
0.285233,-0.7274,-2.0501,0.8475,2.335
0.288027,-2.3653,-4.0178,1.368,4.859
0.301939,-2.8344,-5.8543,1.5016,6.675
0.308182,-2.1645,-7.6863,0.4868,8.0
0.318861,-1.2223,-9.0339,-1.2126,9.197
0.329844,-0.4798,-9.5606,-3.1158,10.067
0.338282,-0.0787,-9.3787,-4.8375,10.553
0.358507,0.023,-9.1379,-5.8352,10.842
0.359676,-0.2553,-8.8552,-6.2519,10.843
0.368756,-0.2839,-8.7233,-6.6139,10.951
0.385244,-0.2316,-9.0417,-6.8644,11.355
0.388229,-0.2138,-9.3447,-6.9085,11.623
0.402084,-0.167,-9.4855,-7.0079,11.795
0.408257,0.1501,-9.7487,-7.1956,12.118
0.419834,0.4983,-9.9091,-7.5433,12.464
0.434426,0.5031,-9.907,-7.6301,12.515
0.438572,0.4821,-9.842,-6.6826,11.906
0.448064,0.7568,-10.139,-6.1872,11.902
0.458974,0.8516,-10.3775,-6.1833,12.11
0.469747,0.5918,-10.3277,-6.3033,12.114
0.482433,0.0684,-10.1089,-6.1526,11.834
0.488396,-0.508,-9.9779,-5.3914,11.353
0.498489,-0.9034,-9.8923,-4.6316,10.96
0.508587,-0.8373,-10.0934,-4.1859,10.959
0.518481,-0.6039,-10.3293,-4.2196,11.174
0.530189,-0.6081,-10.2096,-4.2985,11.094
0.538296,-0.9903,-9.7359,-3.7972,10.497
0.550218,-1.5375,-9.0808,-3.0907,9.715
0.582249,-1.6423,-8.4885,-2.7531,9.074
0.584693,-1.6758,-7.9766,-3.0939,8.718
0.587691,-1.9501,-7.5289,-2.9486,8.318
0.59204,-1.9147,-6.9237,-2.2203,7.519
0.598661,-1.6701,-6.1306,-1.1714,6.461
0.615475,-1.128,-4.7938,0.0734,4.925
0.619283,-0.3549,-2.7111,-0.0352,2.734
0.631088,-0.3711,-0.1462,-1.5109,1.563
0.638259,-0.4938,2.3112,-2.9347,3.768
0.648401,0.4024,4.21,-1.915,4.643
0.664764,1.3568,7.0387,2.6804,7.653
0.697302,2.295,11.2879,8.4014,14.257
0.699898,4.5778,19.6405,10.2079,22.603
0.701675,5.0736,24.9002,4.6,25.825
0.703642,4.6176,29.5124,-0.3939,29.874
0.711817,3.2542,30.5364,-1.0856,30.729
0.718536,1.6392,30.5475,-0.7777,30.601
0.728268,0.7766,30.5793,-0.4202,30.592
0.738379,0.1766,30.6262,0.5398,30.631
0.748111,-2.4514,28.9429,3.1523,29.217
0.780733,-6.179,26.4377,5.4442,27.691
0.783308,-7.6122,23.1809,4.7223,24.852
0.784956,-6.2533,18.9813,1.5475,20.045
0.788428,-4.4464,14.653,-0.9842,15.344
0.799871,-4.0355,11.0836,-0.8304,11.825
0.818701,-3.0087,6.7011,1.3354,7.466
0.821813,-0.7876,0.6099,3.198,3.35
0.829204,1.775,-5.3356,3.6809,6.721
0.838601,3.7955,-9.7956,3.0201,10.931
0.848263,3.424,-12.0971,1.7816,12.698
0.874712,1.9471,-12.3675,-0.1343,12.521
0.878242,0.8536,-12.1203,-2.4536,12.396
0.880663,0.5868,-11.9018,-4.4498,12.72
0.88824,1.5041,-11.7881,-6.2676,13.435
0.898422,3.0454,-12.1375,-7.4314,14.554
0.908371,4.7033,-11.9195,-5.9941,14.147
0.918752,3.8322,-11.0454,-5.251,12.816
0.928483,2.5971,-10.2456,-5.1082,11.739
0.947698,1.1973,-9.6614,-4.6979,10.81
0.950743,-0.0714,-9.3443,-4.5861,10.409
0.985482,-1.4004,-9.008,-4.8705,10.336
0.988722,-3.0192,-8.5415,-4.3415,10.046
0.991006,-4.0016,-8.3322,-3.6268,9.929
0.993653,-4.0453,-8.5417,-3.5667,10.102
0.99833,-3.5547,-8.8595,-4.2077,10.432
1.008344,-2.8842,-8.9781,-5.0816,10.712
1.018606,-2.4731,-8.9184,-5.7437,10.892
1.028633,-2.074,-8.804,-6.2503,10.994
1.044721,-1.4979,-8.8097,-6.539,11.073
1.048421,-1.0577,-9.0056,-6.4404,11.122
1.081364,-0.7292,-9.0314,-6.2401,11.002
1.084699,-0.3444,-9.023,-6.0308,10.858
1.087854,0.1225,-9.3515,-6.0717,11.15
1.08988,0.5001,-9.5763,-5.7796,11.196
1.098405,0.4287,-9.5569,-5.297,10.935
1.109365,0.2128,-9.4596,-4.5565,10.502
1.118879,-0.0719,-9.3326,-4.1251,10.204
1.128369,-0.2951,-9.4316,-4.2194,10.337
1.144329,-0.3877,-9.6343,-4.0849,10.472
1.149514,-0.8843,-10.1675,-3.299,10.726
1.18193,-1.4841,-10.4352,-3.0116,10.962
1.185354,-1.6611,-10.9454,-2.7759,11.413
1.189913,-2.4026,-11.2005,-2.9291,11.824
1.192247,-3.2833,-10.6979,-3.2578,11.655
1.201212,-3.5903,-9.2872,-2.8029,10.344
1.208865,-2.9906,-6.6384,-2.947,7.855
1.218829,-1.6184,-3.0042,-4.0599,5.303
1.228334,0.2046,2.6168,-4.9519,5.605
1.243535,1.3446,9.2681,-4.5048,10.392
1.248908,1.863,15.1303,-2.2602,15.411
1.280079,4.1,20.0438,0.3975,20.463
1.28275,8.6095,23.0174,3.7346,24.857
1.285012,13.9902,25.0148,7.6082,29.654
1.292828,17.6996,28.8593,9.9664,35.291
1.298337,15.7532,30.7154,9.9217,35.917
1.308299,11.5352,30.7476,7.8855,33.774
1.319946,3.1646,30.7976,7.4134,31.835
1.328272,-5.4441,30.8764,9.9403,32.891
1.33875,-8.0792,30.9629,12.2002,34.246
1.348226,-7.2424,31.0209,11.8486,33.987
1.360352,-5.4281,26.588,11.6487,29.531
1.392767,-4.0762,19.5705,7.2829,21.276
1.395897,-2.3958,9.1217,4.8429,10.602
1.398746,-1.2532,4.0766,2.9858,5.206
1.40206,1.2602,-1.6722,1.6762,2.682
1.411651,3.581,-6.2319,1.1587,7.28
1.430582,4.1265,-9.0857,1.0224,10.031
1.434463,3.6614,-10.9809,-0.2361,11.578
1.440816,3.4712,-12.272,-2.2511,12.951
1.448691,3.8892,-13.0833,-3.1381,14.005
1.459968,4.1244,-13.1111,-4.0447,14.327
1.491365,3.2608,-12.1987,-6.2172,14.075
1.494404,2.0278,-10.5434,-7.7812,13.26
1.498419,0.932,-9.0372,-7.9148,12.049
1.500802,0.1552,-8.2797,-7.7656,11.353
1.508209,-0.0067,-7.9953,-7.5538,10.999
1.518363,0.2435,-8.1945,-6.8195,10.664
1.528202,0.822,-9.2413,-6.3407,11.238
1.538373,1.457,-10.4296,-6.0292,12.135
1.554457,1.5785,-11.0039,-5.3069,12.318
1.559403,1.1659,-10.8037,-4.4224,11.732
1.5875,0.4199,-10.1437,-4.0341,10.924
1.590704,-0.715,-9.0339,-3.7754,9.817
1.592203,-1.361,-8.0401,-3.8313,9.01
1.600134,-1.1946,-7.5944,-4.1839,8.753
1.608275,-0.9393,-7.5253,-4.1143,8.628
1.61893,-0.4711,-7.5669,-3.5487,8.371
1.628436,-0.1669,-7.8984,-3.0152,8.456
1.638564,0.1771,-8.4762,-2.9474,8.976
1.655653,0.7834,-9.1534,-2.924,9.641
1.659365,1.2795,-9.7013,-2.9131,10.21
1.690738,1.452,-10.0649,-3.0395,10.614
1.693575,1.4222,-10.1685,-3.0879,10.722
1.697366,1.0223,-10.1116,-3.1162,10.63
1.70017,0.072,-9.8608,-3.2142,10.372
1.709341,-0.6998,-9.5753,-3.6082,10.256
1.726035,-1.0773,-9.5714,-3.9356,10.405
1.730105,-1.0181,-9.7324,-3.8261,10.507
1.73886,-0.6416,-9.5938,-3.9285,10.387
1.75316,-0.4275,-8.4723,-4.5198,9.612
1.760161,-0.882,-6.7953,-5.0474,8.511
1.790392,-1.4664,-5.2686,-5.1073,7.483
1.79303,-1.8598,-3.6015,-3.5477,5.387
1.796296,-1.0741,-1.7088,-1.6496,2.607
1.799229,0.4688,1.5056,-1.7852,2.382
1.808251,3.0768,7.1242,-3.5964,8.553
1.819057,4.4511,14.2443,-5.3944,15.869
1.828991,2.0362,20.2833,-5.6192,21.146
1.83857,0.9792,23.952,-1.5625,24.023
1.852327,8.0849,29.4945,8.3531,31.703
1.858855,12.3314,30.2547,6.469,33.305
1.883766,13.3154,30.2479,2.3172,33.13
1.886393,10.8496,30.2476,0.8202,32.145
1.904904,4.7803,30.2762,1.4247,30.684
1.907647,-0.9041,30.3316,3.4563,30.541
1.91036,-3.8562,30.3965,5.5059,31.131
1.920556,-5.6741,27.5204,6.0719,28.748
1.931103,-6.8195,22.5908,4.1902,23.967
1.938906,-6.0225,17.7149,2.8665,18.929
1.948362,-3.7448,10.9007,2.5163,11.797
1.958393,-0.3085,2.7059,1.1443,2.954
1.968445,2.9196,-4.7545,-0.8372,5.642
1.998708,4.0214,-10.4783,-1.5844,11.335
2.001241,3.5762,-13.7694,-1.1475,14.272
2.003589,2.8427,-14.3185,-1.5695,14.682
2.013753,2.3859,-13.3061,-3.6916,14.013
2.03391,1.7732,-11.8842,-5.8083,13.346
2.03632,0.7661,-10.5259,-7.5083,12.952
2.03987,-0.1522,-9.656,-7.8377,12.438
2.049085,0.0471,-9.0167,-6.5132,11.123
2.05853,0.6559,-8.6919,-5.7015,10.416
2.068373,1.1099,-8.8306,-6.1829,10.837
2.097472,2.3568,-8.9532,-6.4199,11.266
2.100327,2.6241,-9.2079,-5.7623,11.175
2.102892,2.8689,-9.3414,-4.8506,10.91
2.110182,3.3109,-9.424,-4.2045,10.838
2.118177,3.4957,-9.5886,-4.3039,11.076
2.128094,3.0617,-9.5718,-3.9386,10.794
2.138363,2.4307,-9.3576,-3.0891,10.15
2.150816,1.5542,-9.1471,-2.4637,9.6
2.184181,0.6037,-8.8383,-2.3866,9.175
2.186777,0.0978,-8.6329,-2.3833,8.956
2.188077,-0.1968,-8.3295,-2.5699,8.719
2.189701,-0.2285,-8.1947,-3.0739,8.755
2.203165,0.031,-8.252,-3.1477,8.832
2.222109,0.8722,-8.656,-2.7088,9.112
2.225827,1.7215,-9.542,-2.3476,9.976
2.228795,2.3431,-10.4957,-2.2222,10.981
2.238947,2.606,-10.9753,-2.2982,11.512
2.250832,2.3027,-10.7936,-2.5176,11.32
2.28417,1.2383,-10.0665,-2.4456,10.433
2.28799,0.107,-8.7944,-2.1191,9.047
2.29051,-1.0389,-7.757,-1.8382,8.039
2.293257,-1.8995,-7.4997,-1.6625,7.913
2.298459,-1.7062,-8.3233,-1.1234,8.57
2.309861,0.3068,-10.8885,-0.2201,10.895
2.319341,0.1883,-10.5652,0.2429,10.57
2.328125,-0.5997,-9.1125,0.3352,9.138
2.338791,-1.977,-7.166,-0.7615,7.473
2.350069,-3.095,-5.3137,-1.696,6.379
2.387836,-2.5587,-3.8757,-1.7691,4.97
2.39191,-0.4158,-1.5215,-2.0002,2.547
2.393298,1.3764,3.3845,-2.1768,4.253
2.395618,2.3677,10.1478,-1.721,10.562
2.399447,2.1502,16.5356,-0.8343,16.696
2.412377,1.9621,21.7384,1.2268,21.861
2.418681,4.9515,25.6996,3.0961,26.355
2.428268,9.2376,28.4363,3.5117,30.105
2.438592,12.3805,30.1339,1.6556,32.62
2.452069,12.9286,30.1418,1.3857,32.827
2.480478,10.4709,30.1675,3.6678,32.143
2.482961,-0.1124,30.2753,8.6336,31.482
2.488244,-5.2493,30.3375,9.412,32.195
2.499581,-6.3902,30.3857,5.6384,31.558
2.518977,-9.572,30.0226,1.8091,31.564
2.523063,-12.1557,26.6297,2.4922,29.379
2.530853,-10.6741,18.4947,4.1032,21.745
2.539877,-4.6889,6.9717,4.4862,9.525
2.548218,9.6574,-13.1295,-1.1362,16.338
2.561484,12.5662,-17.4838,-3.4472,21.805
2.568528,11.076,-16.0976,-4.1115,19.968
2.599356,8.116,-14.1373,-4.9771,17.044
2.602209,5.8584,-13.4838,-5.4933,15.694
2.604646,3.6629,-12.3226,-5.2853,13.9
2.613667,1.5772,-10.5616,-5.0983,11.833
2.618914,0.8281,-9.4158,-5.6512,11.013
2.628243,1.4454,-9.1028,-5.4958,10.731
2.642486,2.3716,-9.1241,-5.4357,10.882
2.648063,2.565,-9.1262,-6.3898,11.432
2.659851,2.5118,-8.7741,-6.5567,11.238
2.668968,3.5276,-9.0915,-5.0975,11.004
2.69345,4.9562,-9.9743,-3.4699,11.666
2.696364,5.4365,-10.5771,-3.0171,12.269
2.699324,4.4544,-10.3569,-3.0795,11.687
2.712357,2.2864,-9.6148,-2.658,10.234
2.718949,-0.1403,-8.5249,-2.4107,8.86
2.728891,-2.0768,-7.7296,-2.0273,8.256
2.739494,-3.1282,-7.5371,-1.302,8.264
2.748423,-3.4597,-7.4774,-0.8195,8.28
2.760953,-3.5876,-7.2321,-0.8835,8.121
2.768554,-3.2345,-7.0233,-1.3499,7.849
2.797516,-0.4137,-7.6872,-2.4319,8.073
2.799737,0.9807,-8.4491,-2.6775,8.917
2.801601,2.3891,-9.2426,-2.6687,9.912
2.811442,3.5314,-9.9888,-2.4874,10.883
2.818379,4.0763,-10.3452,-2.2641,11.347
2.828338,4.4714,-10.5332,-1.991,11.615
2.844434,4.2263,-10.5335,-1.9532,11.517
2.851091,3.2732,-10.053,-2.0037,10.761
2.858959,2.8429,-9.8344,-1.3151,10.321
2.882578,2.587,-9.7684,-0.2853,10.109
2.884943,1.9044,-9.4354,0.1164,9.626
2.888231,1.1984,-8.7725,0.0003,8.854
2.898249,1.1816,-8.4742,-0.4456,8.568
2.908151,1.5612,-8.5063,-1.4233,8.765
2.919425,1.7878,-7.6214,-2.5222,8.225
2.928158,1.1555,-5.6523,-2.8472,6.434
2.941994,-0.2131,-3.4638,-1.544,3.798
2.948569,-0.4048,-1.6203,-1.4313,2.2
2.960968,-0.618,-0.0719,-1.8303,1.933
3.000134,0.2601,2.8269,0.2253,2.848
3.002608,2.276,7.4482,2.6331,8.221
3.004866,2.179,12.758,2.9444,13.273
3.008378,0.8436,17.1833,3.1986,17.499
3.010727,1.9253,20.463,4.2835,20.995
3.018408,9.7156,23.7731,2.4388,25.797
3.028818,7.8197,27.3649,-3.43,28.666
3.038271,6.4639,29.7059,-1.9873,30.466
3.057192,2.6288,29.7166,-5.1784,30.279
3.06034,0.4369,29.7337,-3.4532,29.937
3.102076,-1.6336,29.7538,1.4572,29.834
3.104374,-0.6451,29.7671,4.7517,30.151
3.106388,2.1595,27.8398,5.486,28.457
3.108662,5.3983,21.5398,4.8842,22.737
3.110667,6.1345,15.8375,3.735,17.39
3.1223,5.1503,10.2251,0.5998,11.465
3.128218,4.9299,5.335,-3.004,7.861
3.140497,3.5201,0.8777,-3.8658,5.301
3.148167,0.7159,-1.6015,-2.5627,3.106
3.158137,-0.6172,-3.3941,-1.1889,3.649
3.172857,-0.3304,-6.5265,0.2064,6.538
3.179288,0.2911,-9.1019,0.9489,9.156
3.208792,1.3967,-10.5034,1.8297,10.753
3.212038,2.346,-11.5372,1.4495,11.862
3.215028,2.3955,-11.6395,-0.091,11.884
3.218706,2.7621,-11.1343,-2.0168,11.648
3.228387,3.6157,-11.1242,-3.1467,12.113
3.240361,4.3943,-11.4403,-3.9797,12.885
3.276738,3.9938,-11.7521,-4.5654,13.225
3.280967,3.2795,-11.9817,-4.3421,13.159
3.283348,2.173,-11.5784,-3.9233,12.417
3.285846,1.7234,-11.1942,-3.8287,11.956
3.288524,1.8827,-10.8079,-3.9347,11.655
3.298788,1.6627,-10.1118,-3.8279,10.939
3.308182,1.562,-9.8563,-3.5511,10.592
3.31869,1.187,-9.7216,-2.9739,10.235
3.328175,0.7174,-9.6207,-1.4988,9.763
3.338511,0.501,-9.5058,-1.1388,9.587
3.352235,0.9125,-9.7758,-0.7288,9.845
3.358548,1.2106,-9.6119,-0.2154,9.69
3.391891,1.0114,-8.9169,-0.0338,8.974
3.394306,1.3929,-9.08,-0.346,9.193
3.396374,1.6794,-9.6384,0.0427,9.784
3.398601,1.2444,-9.4137,-0.0006,9.496
3.410786,0.4274,-8.4374,-4.9193,9.776
3.429036,-0.6375,-7.4042,-4.4939,8.685
3.430545,-1.0108,-7.917,-1.2142,8.073
3.438217,0.7081,-8.9599,0.1991,8.99
3.447958,1.1859,-9.4885,0.0156,9.562
3.458061,1.176,-9.2631,-0.0234,9.337
3.468248,1.2265,-9.3445,0.1601,9.426
3.500546,1.5583,-9.7626,-1.0159,9.938
3.502054,1.998,-8.3601,-1.0967,8.665
3.502904,2.4333,-7.6439,-0.5007,8.037
3.514401,2.8614,-7.1664,-0.1226,7.718
