time,ax,ay,az,atotal
0.000,-0.41,-0.06,-0.38,0.56
0.010,-0.59,-0.36,-0.56,0.89
0.020,-0.38,-0.26,-0.57,0.74
0.030,-0.48,-0.11,-0.74,0.89
0.040,-0.53,0.07,-0.76,0.93
0.050,-0.73,0.46,-0.79,1.17
0.060,-1.15,0.75,-0.88,1.63
0.071,-1.51,0.96,-0.71,1.92
0.081,-1.54,1.15,-0.17,1.93
0.091,-1.52,0.92,0.66,1.90
0.101,-1.71,0.38,1.74,2.47
0.111,-1.96,-0.11,1.86,2.70
0.121,-1.77,0.41,0.75,1.96
0.131,-1.47,0.30,0.12,1.51
0.141,-0.71,-0.33,0.44,0.90
0.151,-0.04,-0.73,1.37,1.56
0.161,-0.35,-0.65,0.40,0.84
0.171,-0.48,-1.65,0.24,1.73
0.181,-0.12,-1.87,0.60,1.97
0.192,-0.17,-1.21,0.20,1.23
0.201,0.17,-1.14,-0.20,1.17
0.212,0.25,-1.81,0.25,1.85
0.222,0.93,-3.40,1.63,3.88
0.232,1.16,-2.48,0.51,2.78
0.242,1.21,-1.96,-1.12,2.56
0.252,1.47,-1.22,-1.89,2.69
0.262,2.63,-0.71,-2.29,3.56
0.272,3.10,-0.71,-2.41,3.99
0.282,2.45,-0.15,-2.81,3.73
0.292,1.67,-0.29,-3.48,3.87
0.302,0.93,-1.04,-3.22,3.51
0.312,0.29,-1.60,-2.35,2.85
0.322,-0.05,-1.99,-1.44,2.46
0.333,0.14,-1.82,-0.50,1.89
0.343,0.47,-0.88,0.56,1.14
0.353,0.39,0.99,2.64,2.85
0.363,-0.46,2.14,3.87,4.45
0.373,-2.20,3.00,4.84,6.10
0.383,-3.46,4.27,5.74,7.95
0.393,-2.83,5.80,5.34,8.38
0.403,-0.66,6.62,4.47,8.02
0.413,-0.30,7.31,4.47,8.57
0.423,-2.65,8.09,5.10,9.92
0.433,-4.25,7.55,5.86,10.46
0.443,-2.34,4.83,6.12,8.14
0.453,-1.03,3.12,4.57,5.62
0.463,-0.63,2.44,4.00,4.73
0.473,-0.37,1.64,3.76,4.12
0.484,-0.48,0.48,2.58,2.67
0.494,0.35,-0.01,1.33,1.38
0.504,0.68,-0.38,0.63,1.00
0.514,0.32,-1.42,-0.11,1.46
0.524,0.53,-2.59,-1.44,3.01
0.534,0.94,-3.88,-3.09,5.05
0.544,0.94,-4.80,-3.74,6.15
0.554,0.83,-5.14,-4.32,6.76
0.564,0.84,-5.03,-5.01,7.14
0.574,0.92,-4.68,-5.60,7.35
0.584,0.82,-4.48,-5.81,7.38
0.594,1.07,-4.32,-5.87,7.36
0.604,1.24,-4.03,-6.03,7.36
0.614,1.24,-3.29,-5.69,6.69
0.625,1.48,-4.08,-5.70,7.17
0.635,2.04,-4.42,-5.74,7.52
0.645,2.39,-4.60,-5.61,7.64
0.655,2.68,-5.09,-5.58,8.01
0.665,2.75,-4.59,-5.63,7.77
0.675,2.52,-3.41,-5.32,6.81
0.685,1.69,-2.60,-4.32,5.32
0.695,0.59,-1.39,-2.46,2.89
0.705,-0.59,0.72,-0.10,0.93
0.715,-2.26,3.50,2.16,4.69
0.725,-3.43,5.80,4.21,7.94
0.735,-3.55,7.53,7.24,11.03
0.746,-3.44,9.67,7.13,12.50
0.756,-3.08,11.44,8.39,14.52
0.766,-1.71,12.59,11.77,17.32
0.776,-0.35,12.29,13.14,17.99
0.786,0.45,10.50,13.98,17.49
0.796,0.18,8.87,15.35,17.73
0.806,-0.07,6.80,16.45,17.80
0.816,0.64,5.10,16.32,17.11
0.826,1.52,3.77,14.51,15.07
0.836,2.72,1.78,11.81,12.25
0.846,3.74,0.02,8.94,9.69
0.856,4.37,-1.65,5.45,7.18
0.866,4.29,-3.11,2.20,5.73
0.876,3.46,-3.46,-0.45,4.91
0.886,2.45,-3.45,-2.69,5.01
0.897,1.12,-3.65,-4.29,5.74
0.907,-0.16,-3.42,-5.27,6.29
0.917,-0.66,-3.40,-6.32,7.21
0.927,-0.67,-4.09,-7.55,8.61
0.937,-0.71,-4.87,-8.90,10.17
0.947,-0.67,-5.66,-10.06,11.56
0.957,-0.73,-6.55,-10.70,12.57
0.967,-0.94,-7.51,-11.00,13.35
0.977,-1.34,-7.98,-11.30,13.90
0.987,-1.66,-8.24,-11.21,14.01
0.997,-1.83,-8.82,-11.29,14.44
1.007,-2.80,-8.98,-11.21,14.63
1.017,-3.07,-8.72,-10.55,14.03
1.028,-2.85,-8.33,-10.34,13.58
1.038,-3.03,-7.82,-10.03,13.07
1.048,-2.99,-7.80,-9.40,12.57
1.058,-2.89,-7.86,-8.63,12.03
1.068,-2.88,-7.75,-8.19,11.63
1.078,-2.71,-7.27,-7.97,11.12
1.088,-2.57,-6.71,-7.66,10.50
1.098,-2.21,-6.63,-7.10,9.96
1.108,-1.46,-6.65,-6.40,9.35
1.118,-1.01,-6.37,-5.83,8.70
1.128,-0.46,-5.28,-5.17,7.41
1.138,-0.07,-4.12,-4.25,5.92
1.148,0.46,-2.80,-2.81,3.99
1.158,1.03,-1.20,-0.78,1.76
1.168,1.61,1.08,1.42,2.41
1.179,1.99,5.29,3.37,6.58
1.189,2.40,9.92,5.35,11.53
1.199,3.58,11.83,7.12,14.27
1.209,4.56,12.25,8.58,15.63
1.219,4.35,15.09,10.60,18.95
1.229,3.84,18.45,12.33,22.52
1.239,3.36,20.39,13.77,24.83
1.249,2.93,21.52,15.48,26.67
1.259,2.95,20.77,17.37,27.24
1.270,3.20,18.29,19.53,26.95
1.279,3.13,14.98,20.98,25.97
1.290,1.94,12.06,20.78,24.10
1.300,1.36,9.12,19.60,21.66
1.310,1.03,5.50,16.33,17.26
1.320,1.08,2.30,12.91,13.16
1.330,1.40,-0.73,8.76,8.90
1.340,1.49,-2.88,4.83,5.82
1.350,1.53,-4.33,1.53,4.84
1.360,1.35,-4.93,-0.78,5.17
1.370,0.92,-5.18,-2.82,5.97
1.380,0.05,-4.86,-4.49,6.62
1.390,-0.44,-4.69,-5.79,7.46
1.400,-0.61,-5.18,-6.84,8.60
1.410,-0.72,-5.95,-7.69,9.75
1.420,-0.96,-6.78,-8.21,10.69
1.430,-1.16,-7.50,-8.52,11.41
1.440,-1.25,-8.29,-8.72,12.10
1.451,-1.47,-9.09,-8.73,12.69
1.461,-1.63,-10.02,-8.45,13.21
1.471,-1.74,-9.93,-8.25,13.03
1.481,-1.64,-9.33,-8.20,12.53
1.491,-1.63,-9.29,-8.21,12.51
1.501,-1.61,-9.15,-7.36,11.86
1.511,-1.78,-8.60,-7.55,11.58
1.521,-1.79,-7.88,-7.42,10.97
1.531,-1.51,-7.22,-6.91,10.11
1.541,-1.25,-6.71,-6.96,9.75
1.551,-0.79,-6.29,-6.88,9.35
1.561,-0.39,-5.99,-6.80,9.07
1.572,-0.06,-5.76,-6.72,8.85
1.582,0.22,-5.50,-6.80,8.75
1.592,0.52,-5.32,-6.87,8.70
1.602,0.72,-5.36,-6.86,8.73
1.612,0.96,-5.43,-6.72,8.70
1.622,1.26,-5.34,-6.52,8.52
1.632,1.58,-5.08,-5.82,7.88
1.642,1.55,-4.80,-5.26,7.29
1.652,1.73,-4.42,-4.92,6.84
1.662,2.05,-4.41,-4.26,6.47
1.672,2.04,-4.29,-3.11,5.68
1.682,1.73,-3.12,-1.64,3.93
1.692,1.39,-1.00,-0.10,1.72
1.702,1.32,1.34,1.71,2.54
1.713,1.05,4.00,3.69,5.54
1.723,0.30,7.36,5.85,9.41
1.733,-0.01,9.15,7.64,11.92
1.743,-0.39,10.65,8.58,13.68
1.753,-1.97,14.50,9.58,17.49
1.763,-2.82,16.99,10.15,19.99
1.773,-3.44,18.33,10.49,21.40
1.783,-3.79,19.50,12.03,23.22
1.793,-3.90,19.28,13.44,23.83
1.804,-3.80,18.99,14.12,23.97
1.813,-2.88,17.82,15.37,23.71
1.824,-1.60,15.16,16.08,22.16
1.833,-0.34,11.60,15.22,19.14
1.844,0.20,7.58,13.42,15.42
1.854,0.38,3.60,10.59,11.19
1.864,0.50,-0.28,6.92,6.94
1.874,0.55,-3.47,3.17,4.73
1.884,0.53,-5.29,0.13,5.32
1.894,0.31,-6.41,-1.71,6.64
1.904,-0.42,-7.32,-2.82,7.85
1.914,-1.04,-7.67,-3.85,8.65
1.924,-1.41,-7.61,-4.96,9.19
1.934,-1.72,-7.70,-5.59,9.67
1.945,-1.99,-8.31,-5.83,10.34
1.954,-2.26,-9.06,-5.80,11.00
1.964,-2.57,-9.50,-5.72,11.38
1.974,-2.88,-9.69,-5.68,11.60
1.984,-3.08,-9.57,-5.84,11.63
1.995,-3.09,-9.40,-5.96,11.55
2.005,-3.05,-9.30,-6.02,11.49
2.015,-3.08,-9.10,-5.81,11.23
2.025,-3.12,-8.71,-5.59,10.81
2.035,-3.24,-8.11,-5.50,10.32
2.045,-3.54,-7.42,-5.40,9.84
2.055,-3.55,-6.58,-5.36,9.20
2.065,-3.41,-5.95,-5.35,8.69
2.075,-3.23,-5.33,-5.50,8.32
2.085,-3.10,-4.57,-5.58,7.85
2.095,-3.00,-3.84,-5.68,7.49
2.105,-2.80,-3.23,-5.81,7.22
2.116,-2.36,-3.05,-5.58,6.79
2.125,-1.97,-3.07,-5.48,6.59
2.136,-1.56,-2.73,-5.27,6.14
2.146,-1.24,-2.11,-4.99,5.56
2.156,-1.05,-1.28,-4.65,4.93
2.166,-0.81,-0.24,-4.10,4.19
2.176,-0.42,1.00,-3.19,3.37
2.186,-0.28,2.61,-1.38,2.96
2.196,-0.35,4.81,0.69,4.88
2.206,0.26,5.90,2.37,6.36
2.216,1.32,5.28,3.62,6.54
2.226,1.53,5.14,4.13,6.76
2.236,0.25,7.03,4.20,8.20
2.246,-1.21,10.11,4.26,11.04
2.256,-2.31,12.00,5.11,13.24
2.267,-3.35,14.06,6.26,15.75
2.277,-4.23,16.47,7.69,18.66
2.287,-3.66,16.94,9.28,19.66
2.297,-1.57,15.07,10.48,18.43
2.307,1.02,12.14,11.76,16.93
2.317,3.10,9.83,12.81,16.45
2.327,4.59,7.81,13.07,15.90
2.337,5.45,5.68,12.10,14.44
2.347,5.90,3.91,10.74,12.87
2.357,5.62,2.29,8.87,10.75
2.367,5.06,0.90,6.56,8.33
2.378,4.67,-0.41,4.14,6.26
2.387,4.41,-1.58,1.97,5.08
2.398,4.15,-2.26,0.15,4.73
2.408,3.67,-2.91,-1.51,4.92
2.418,3.30,-3.59,-2.96,5.70
2.428,3.11,-4.21,-4.35,6.80
2.438,2.82,-5.01,-5.41,7.90
2.448,2.38,-6.08,-6.16,8.98
2.458,1.95,-7.15,-6.66,9.96
2.468,1.50,-8.27,-6.94,10.90
2.478,1.05,-9.22,-6.92,11.57
2.488,0.71,-10.64,-6.91,12.71
2.498,0.63,-11.69,-6.94,13.60
2.508,0.66,-11.93,-7.18,13.94
2.518,0.62,-12.10,-7.21,14.10
2.529,0.64,-11.76,-7.00,13.70
2.539,0.48,-11.01,-6.71,12.91
2.549,0.36,-10.09,-6.33,11.92
2.559,0.35,-9.37,-5.84,11.04
2.569,0.34,-8.89,-5.27,10.33
2.579,0.46,-8.39,-4.80,9.68
2.589,0.40,-7.48,-4.50,8.74
2.599,0.15,-6.37,-3.91,7.47
2.609,-0.43,-5.18,-2.90,5.96
2.619,-1.17,-2.99,-1.88,3.72
2.629,-1.94,-0.80,-1.24,2.44
2.639,-2.70,0.25,-0.71,2.81
2.649,-3.20,0.86,-0.22,3.32
2.660,-4.51,3.17,0.44,5.53
2.669,-7.17,8.71,0.83,11.32
2.680,-10.29,14.63,1.21,17.93
2.690,-12.65,18.63,2.41,22.65
2.700,-13.16,21.34,4.14,25.41
2.710,-12.32,22.11,5.71,25.94
2.720,-10.43,20.93,6.43,24.25
2.730,-7.43,19.00,6.57,21.44
2.740,-3.40,15.80,6.48,17.41
2.750,0.18,12.10,5.82,13.43
2.760,2.57,8.16,5.04,9.93
2.770,3.70,4.41,3.85,6.92
2.780,3.63,1.17,2.93,4.81
2.790,2.80,-0.96,1.67,3.39
2.800,2.00,-2.36,-0.09,3.10
2.811,1.71,-4.59,-1.36,5.08
2.821,1.62,-7.30,-2.00,7.74
2.831,1.16,-9.14,-2.66,9.59
2.841,0.68,-9.62,-3.06,10.12
2.851,0.28,-9.59,-3.89,10.36
2.861,-0.37,-9.02,-4.40,10.04
2.871,-0.69,-8.61,-4.61,9.79
2.881,-0.57,-8.82,-4.83,10.07
2.891,-0.46,-8.88,-5.33,10.37
2.901,-0.43,-8.71,-5.47,10.29
2.911,0.23,-8.75,-5.63,10.41
2.921,0.31,-8.50,-5.88,10.34
2.931,0.11,-8.00,-5.86,9.91
2.942,0.26,-7.95,-5.75,9.81
2.952,0.51,-8.20,-5.55,9.91
2.962,0.45,-8.18,-5.39,9.81
2.972,0.38,-7.98,-5.05,9.45
2.982,0.24,-7.40,-4.66,8.75
2.992,-0.02,-6.38,-4.08,7.57
3.002,-0.10,-5.02,-3.28,6.00
3.012,0.03,-3.27,-2.34,4.03
3.022,0.19,-1.39,-1.45,2.02
3.032,0.37,0.27,-0.52,0.70
3.042,0.44,1.36,0.66,1.58
3.052,0.27,2.63,2.11,3.38
3.062,0.07,4.43,3.28,5.51
3.072,0.10,5.45,4.20,6.88
3.082,0.07,5.91,5.12,7.82
3.093,-0.37,6.88,6.14,9.22
3.103,-1.11,8.92,7.04,11.42
3.113,-1.82,11.90,8.45,14.71
3.123,-2.31,13.75,9.75,17.01
3.133,-2.42,13.72,10.66,17.54
3.143,-2.22,13.21,11.21,17.47
3.153,-2.12,12.30,10.81,16.51
3.163,-2.02,10.59,9.54,14.39
3.173,-1.66,8.98,8.29,12.33
3.183,-0.61,6.75,7.44,10.07
3.193,0.78,4.29,6.35,7.71
3.203,1.71,2.21,5.28,5.97
3.213,2.42,0.62,4.21,4.90
3.223,3.00,-0.82,3.07,4.37
3.234,3.45,-1.99,1.84,4.38
3.244,3.52,-2.53,0.60,4.37
3.254,3.26,-2.92,-0.42,4.40
3.264,2.93,-3.67,-1.41,4.90
3.274,2.65,-4.59,-2.52,5.87
3.284,2.44,-5.40,-3.60,6.93
3.294,2.47,-5.95,-4.50,7.86
3.304,2.53,-6.37,-5.22,8.61
3.314,2.76,-6.63,-5.79,9.22
3.324,2.85,-6.85,-6.11,9.61
3.334,2.59,-6.92,-6.38,9.76
3.344,2.19,-6.83,-6.52,9.69
3.354,1.84,-6.62,-6.61,9.53
3.364,1.57,-6.24,-6.63,9.24
3.375,1.13,-5.83,-6.61,8.88
3.385,0.83,-5.35,-6.48,8.45
3.395,0.73,-4.80,-6.33,7.98
3.405,0.69,-4.12,-6.21,7.48
3.415,0.70,-3.56,-5.77,6.82
3.425,0.59,-3.29,-5.28,6.25
3.435,0.28,-2.92,-4.84,5.66
3.445,-0.42,-1.82,-4.34,4.72
3.455,-1.53,0.22,-3.83,4.13
3.465,-2.82,2.64,-3.27,5.06
3.475,-3.81,4.86,-2.35,6.61
3.485,-4.40,6.71,-1.50,8.16
3.496,-4.54,7.67,-0.81,8.95
3.505,-4.35,7.70,-0.04,8.84
3.516,-3.95,7.62,0.82,8.62
3.526,-3.46,7.32,1.81,8.29
3.536,-2.70,6.85,2.48,7.77
3.546,-1.75,6.16,3.13,7.13
3.556,-0.73,4.94,3.65,6.19
3.566,0.27,3.69,3.82,5.32
3.576,1.15,2.85,3.89,4.96
3.586,1.88,2.42,3.81,4.89
3.596,2.43,1.94,3.60,4.75
3.606,2.89,1.20,3.82,4.94
3.616,3.05,0.44,3.98,5.04
3.627,2.83,-0.08,3.29,4.34
3.637,2.50,-0.31,2.49,3.55
3.647,1.99,-0.47,1.72,2.67
3.657,1.29,-0.66,0.93,1.72
3.667,0.55,-0.87,0.50,1.14
3.677,0.27,-1.04,-0.29,1.11
3.687,0.28,-1.39,-1.04,1.76
3.697,0.31,-1.96,-1.37,2.41
3.707,0.58,-2.44,-1.56,2.95
3.717,0.88,-2.59,-1.56,3.15
3.727,1.16,-1.32,-1.35,2.21
3.737,1.32,-0.16,-1.21,1.79
3.747,1.31,-1.82,-2.03,3.03
3.758,1.55,-2.21,-2.36,3.58
3.767,1.83,-1.50,-2.02,3.11
3.778,1.91,-0.71,-1.46,2.50
3.788,1.95,-0.35,-1.01,2.22
3.798,1.84,-0.42,-0.46,1.94
3.808,1.73,-0.44,-0.14,1.79
3.818,1.40,-0.46,0.15,1.48
3.828,1.06,-0.69,0.40,1.33
3.838,0.98,-1.13,0.55,1.59
3.848,0.92,-1.22,0.90,1.77
3.858,0.96,-0.74,1.39,1.84
3.868,0.85,-1.00,1.67,2.13
3.878,0.63,-1.41,1.80,2.37
3.888,0.41,-1.53,1.65,2.28
3.898,0.22,-1.13,1.45,1.85
3.908,-0.06,-0.36,1.46,1.51
3.919,-0.30,0.33,1.40,1.47
3.929,-0.28,0.47,1.35,1.46
3.939,-0.13,0.05,1.43,1.44
3.949,-0.11,-0.53,1.65,1.74
3.959,0.06,-0.80,1.46,1.67
3.969,0.48,-0.53,0.70,1.00
3.979,-0.63,-1.55,0.81,1.86
3.989,0.49,-0.52,-0.06,0.72
3.999,0.87,-0.21,-0.51,1.03
4.009,0.58,-0.80,-1.77,2.02
4.019,0.65,-0.74,-2.44,2.63
4.029,0.85,-0.37,-2.52,2.68
4.039,1.11,-0.08,-2.29,2.55
4.050,1.72,0.84,-2.04,2.80
4.060,1.25,-0.06,-1.26,1.78
4.070,0.89,-1.11,-0.96,1.71
4.080,1.27,-1.03,-1.09,1.97
4.090,1.46,-1.06,-0.90,2.01
4.100,1.35,-1.15,-0.46,1.83
4.110,1.08,-0.97,0.07,1.45
4.120,0.70,-0.51,0.70,1.11
4.130,0.29,0.04,1.42,1.45
4.140,-0.09,0.51,2.37,2.42
4.150,-0.38,0.77,2.94,3.06
4.160,-0.43,0.85,3.22,3.35
4.170,-0.60,1.50,3.38,3.75
4.181,-1.02,2.70,3.34,4.41
4.190,-1.65,3.55,2.84,4.84
4.201,-2.03,3.55,2.93,5.03
4.211,-2.35,3.27,3.34,5.23
4.221,-2.67,3.33,3.57,5.56
4.231,-2.72,3.09,3.92,5.69
4.241,-2.50,2.47,4.00,5.32
4.251,-2.16,1.75,3.75,4.66
4.261,-1.77,1.12,3.37,3.96
4.271,-1.42,0.85,2.72,3.19
4.281,-1.29,0.68,1.78,2.30
4.291,-1.08,0.14,0.49,1.19
4.301,-0.88,-0.21,-1.13,1.45
4.312,-0.38,-0.48,-2.36,2.44
4.321,0.18,-0.72,-3.09,3.17
4.332,0.85,-1.05,-3.32,3.58
4.342,1.53,-1.50,-3.30,3.93
4.352,2.19,-1.75,-3.46,4.45
4.362,2.64,-2.00,-3.74,5.00
4.372,2.49,-2.46,-4.06,5.36
4.382,1.61,-2.94,-4.19,5.37
4.392,1.04,-3.37,-4.11,5.42
4.402,0.91,-3.65,-4.04,5.52
4.412,0.93,-3.45,-3.95,5.33
4.422,0.76,-2.23,-3.61,4.31
4.432,0.28,-1.04,-2.60,2.81
4.442,-0.31,-0.62,-1.21,1.40
4.452,-0.75,-0.72,0.25,1.07
4.463,-1.00,-0.40,1.35,1.73
4.473,-1.07,0.59,1.88,2.24
4.483,-1.20,1.86,2.24,3.15
4.493,-1.34,2.92,2.48,4.06
4.503,-1.37,3.47,2.74,4.63
4.513,-1.87,3.70,2.80,5.00
4.523,-2.30,3.53,2.92,5.13
4.533,-2.18,3.16,3.21,5.00
4.543,-1.64,2.80,3.59,4.84
4.553,-1.30,2.47,3.85,4.75
4.563,-1.18,2.29,3.80,4.60
4.573,-1.01,2.01,3.50,4.16
4.583,-0.90,1.48,3.02,3.48
4.594,-1.14,0.82,2.11,2.54
4.603,-0.97,0.01,0.66,1.18
4.614,-0.84,0.54,-1.11,1.50
4.624,-0.76,-0.48,-1.78,1.99
4.634,-0.94,-1.16,-2.66,3.05
4.644,-1.16,-1.32,-3.73,4.13
4.654,-0.91,-1.68,-4.23,4.64
4.664,-0.37,-1.91,-4.60,4.99
4.674,0.24,-1.99,-5.27,5.63
4.684,0.83,-1.98,-5.70,6.09
4.694,1.48,-1.94,-5.53,6.04
4.704,2.47,-2.06,-4.39,5.44
4.714,2.87,-2.19,-3.24,4.85
4.724,2.87,-2.54,-3.03,4.89
4.734,2.56,-2.74,-3.25,4.96
4.744,1.76,-2.45,-3.41,4.55
4.755,0.85,-1.81,-2.93,3.55
4.765,0.69,-1.15,-1.76,2.21
4.775,0.10,-0.79,-0.70,1.06
4.785,-0.78,-0.71,0.56,1.20
4.795,-1.16,0.06,2.52,2.77
4.805,-1.71,1.23,3.76,4.31
4.815,-2.59,2.25,3.03,4.58
4.825,-2.69,3.71,3.53,5.78
4.835,-3.04,4.13,4.16,6.60
4.845,-3.26,3.59,3.80,6.16
4.855,-2.88,3.32,3.64,5.71
4.866,-2.22,3.17,4.16,5.68
4.876,-1.97,2.47,4.33,5.36
4.886,-1.08,1.82,4.04,4.56
4.896,0.06,1.21,3.90,4.08
4.906,0.39,0.56,3.15,3.22
4.916,0.88,-0.16,1.65,1.88
4.926,1.26,-0.75,0.14,1.47
4.936,1.48,-1.00,-1.11,2.10
4.946,1.33,-0.95,-2.25,2.77
4.956,1.23,-1.26,-2.90,3.39
4.966,1.21,-1.85,-3.27,3.94
4.976,1.19,-2.34,-3.72,4.55
4.986,1.04,-2.81,-3.74,4.79
4.997,2.09,-2.79,-3.13,4.69
5.007,2.64,-2.83,-2.08,4.39
5.017,2.32,-2.98,-2.02,4.28
5.027,1.92,-3.05,-3.02,4.70
5.037,1.87,-3.03,-3.58,5.05
5.047,1.87,-2.89,-3.60,4.98
5.057,1.74,-2.72,-2.98,4.39
5.067,1.29,-2.50,-2.53,3.78
5.077,0.64,-2.03,-2.14,3.02
5.087,0.09,-1.60,-1.62,2.28
5.097,-0.29,-1.40,-1.30,1.93
5.107,0.52,-0.60,-0.30,0.85
5.117,-0.03,0.41,1.09,1.16
5.127,-1.24,1.43,1.22,2.25
5.137,-1.86,2.69,1.01,3.42
5.148,-1.99,4.53,1.75,5.25
5.158,-2.40,5.49,1.96,6.31
5.168,-2.82,5.75,1.64,6.62
5.178,-3.17,6.25,1.43,7.16
5.188,-3.43,6.53,1.49,7.52
5.198,-2.43,6.79,2.89,7.77
5.208,-1.92,6.17,3.89,7.54
5.218,-1.37,5.23,3.86,6.64
5.228,-0.46,4.57,3.58,5.82
5.238,0.55,3.77,4.01,5.54
5.248,0.96,2.45,3.32,4.24
5.258,1.26,0.82,2.24,2.70
5.268,1.52,-0.62,1.57,2.27
5.279,1.51,-1.87,0.74,2.52
5.289,1.45,-2.91,-0.29,3.26
5.299,1.07,-3.62,-1.37,4.02
5.309,0.74,-4.00,-2.18,4.61
5.319,0.62,-4.14,-2.73,4.99
5.329,0.68,-4.24,-3.23,5.38
5.339,0.71,-4.29,-3.69,5.70
5.349,0.99,-4.53,-3.70,5.93
5.359,0.93,-4.68,-3.32,5.81
5.369,0.76,-4.43,-3.11,5.47
5.379,0.64,-4.36,-3.03,5.35
5.389,0.64,-4.37,-3.01,5.34
5.399,0.49,-4.16,-2.92,5.10
5.409,0.27,-3.62,-2.69,4.52
5.419,0.05,-2.85,-2.42,3.74
5.430,-0.24,-1.91,-2.19,2.92
5.440,-0.41,-1.18,-1.71,2.11
5.450,-0.35,-0.93,-1.06,1.45
5.460,-0.37,-0.52,-0.54,0.84
5.470,-0.52,0.46,-0.17,0.71
5.480,-0.63,1.63,0.27,1.77
5.490,-0.86,2.84,0.39,2.99
5.500,-1.36,4.17,0.36,4.40
5.510,-1.86,5.35,0.44,5.68
5.520,-2.05,5.75,0.69,6.15
5.530,-2.06,5.60,0.88,6.03
5.540,-1.83,5.36,1.40,5.83
5.551,-1.16,5.21,2.13,5.75
5.561,-0.32,5.14,2.69,5.81
5.571,0.38,4.72,2.76,5.48
5.581,0.84,3.94,2.66,4.83
5.591,1.26,3.03,2.71,4.26
5.601,1.68,2.11,2.42,3.62
5.611,1.72,1.10,0.99,2.26
5.621,1.54,-0.27,0.19,1.57
5.631,1.56,-2.13,0.02,2.64
5.641,1.53,-2.43,-1.10,3.07
5.651,1.47,-1.64,-2.32,3.20
5.661,1.28,-1.59,-2.60,3.31
5.671,1.17,-2.14,-2.67,3.62
5.681,1.02,-2.55,-3.02,4.08
5.692,0.92,-2.79,-3.21,4.35
5.701,0.90,-3.03,-3.21,4.51
5.712,0.96,-3.34,-3.22,4.74
5.722,0.90,-3.65,-3.04,4.84
5.732,0.75,-3.69,-2.73,4.65
5.742,0.49,-3.44,-2.54,4.30
5.752,0.05,-2.91,-2.28,3.70
5.762,-0.38,-1.95,-2.01,2.83
5.772,-0.79,-1.03,-1.42,1.93
5.782,-1.09,-0.49,-0.58,1.33
5.792,-1.30,-0.23,0.16,1.33
5.802,-1.50,0.09,0.48,1.58
5.812,-1.80,1.07,0.42,2.14
5.822,-2.30,2.50,0.36,3.42
5.832,-3.00,3.99,0.52,5.02
5.843,-3.62,5.11,0.77,6.31
5.853,-3.97,5.29,1.35,6.75
5.863,-3.73,4.58,1.86,6.20
5.873,-3.03,3.57,2.07,5.12
5.883,-1.43,3.02,2.62,4.25
5.893,-1.16,2.57,3.13,4.21
5.903,-1.04,2.21,2.47,3.47
5.913,-0.86,1.64,1.91,2.66
5.923,-0.79,0.95,1.32,1.81
5.933,-0.72,0.15,0.60,0.94
5.943,-0.64,-0.61,0.02,0.89
5.953,-0.53,-1.00,-0.37,1.19
5.963,-0.23,-1.10,-0.71,1.33
5.973,0.09,-1.37,-1.20,1.82
5.984,0.40,-1.75,-1.83,2.56
5.994,0.73,-1.97,-2.27,3.10
6.004,0.98,-2.03,-2.59,3.43
6.014,1.15,-2.03,-2.80,3.64
6.024,1.34,-1.95,-2.97,3.80
6.034,1.54,-1.90,-3.06,3.92
6.044,1.72,-1.93,-3.11,4.05
6.054,1.81,-1.96,-3.12,4.10
6.064,1.67,-1.82,-3.07,3.94
6.074,1.34,-1.30,-2.90,3.45
6.084,0.97,-0.66,-2.60,2.86
6.095,0.66,-0.15,-2.11,2.22
6.104,0.40,0.18,-1.36,1.43
6.115,0.43,0.22,-0.44,0.66
6.125,0.64,0.03,0.41,0.76
6.135,0.63,0.14,0.93,1.13
6.145,0.31,0.90,0.85,1.27
6.155,-0.25,1.67,0.61,1.79
6.165,-0.95,2.26,0.39,2.48
6.175,-1.43,2.71,0.47,3.10
6.185,-1.34,2.67,1.02,3.15
6.195,-0.47,2.34,2.03,3.13
6.205,0.79,2.15,2.98,3.76
6.215,1.79,2.16,3.51,4.50
6.226,2.34,2.30,3.92,5.11
6.235,2.67,2.61,3.26,4.96
6.246,3.54,3.01,2.33,5.19
6.256,3.83,2.52,2.43,5.19
6.266,3.31,0.86,2.07,4.00
6.276,2.65,0.07,0.49,2.70
6.286,1.99,-0.06,-0.82,2.15
6.296,1.52,-0.27,-1.01,1.84
6.306,1.00,-0.98,-0.92,1.67
6.316,0.61,-1.40,-1.21,1.94
6.326,0.38,-1.55,-1.84,2.43
6.336,0.16,-1.67,-2.44,2.97
6.346,0.03,-1.74,-2.84,3.33
6.356,-0.07,-1.85,-3.14,3.64
6.366,-0.13,-2.12,-3.33,3.95
6.377,-0.10,-2.53,-3.42,4.25
6.387,-0.04,-2.73,-3.20,4.21
6.397,-0.08,-2.63,-2.68,3.76
6.407,-0.33,-2.03,-2.11,2.95
6.417,-0.59,-1.22,-1.98,2.40
6.427,-0.79,-0.75,-1.66,1.98
6.437,-0.83,-0.59,-0.88,1.35
6.447,-0.79,-0.43,-0.18,0.92
6.457,-0.83,-0.45,0.37,1.02
6.467,-1.12,-0.15,0.46,1.22
6.477,-1.90,0.93,0.15,2.12
6.487,-2.87,2.65,0.09,3.91
6.497,-3.54,4.00,0.55,5.37
6.507,-3.75,4.27,1.36,5.84
6.517,-3.22,3.76,2.12,5.38
6.528,-2.57,3.51,2.93,5.25
6.538,-2.04,3.69,3.72,5.63
6.548,-1.49,3.53,4.29,5.76
6.558,-1.51,3.36,4.07,5.48
6.568,-1.19,3.07,3.76,5.00
6.578,-0.55,2.46,3.33,4.18
6.588,0.25,1.64,2.44,2.95
6.598,0.79,0.69,1.35,1.71
6.608,1.15,-0.25,0.54,1.29
6.618,1.29,-1.06,0.48,1.74
6.628,1.48,-1.59,0.76,2.30
6.638,1.76,-1.91,0.67,2.68
6.648,1.91,-2.23,0.13,2.94
6.658,1.98,-2.46,-0.51,3.20
6.669,2.09,-2.53,-1.08,3.45
6.679,2.29,-2.50,-1.49,3.71
6.689,2.44,-2.49,-1.72,3.89
6.699,2.60,-2.47,-1.95,4.08
6.709,2.71,-2.57,-2.29,4.38
6.719,2.80,-2.82,-2.32,4.60
6.729,2.90,-2.86,-2.13,4.60
6.739,2.84,-2.58,-1.86,4.26
6.749,2.67,-2.23,-1.54,3.80
6.759,2.40,-2.16,-1.25,3.46
6.769,2.07,-2.13,-1.22,3.21
6.779,1.51,-1.61,-1.54,2.69
6.789,0.70,-0.66,-1.81,2.05
6.799,-0.39,0.61,-2.01,2.14
6.809,-1.62,1.97,-1.59,3.00
6.820,-2.56,3.05,-0.74,4.05
6.830,-3.19,3.51,0.46,4.77
6.840,-3.19,3.62,1.52,5.06
6.850,-2.73,3.54,2.25,5.01
6.860,-2.15,3.34,2.79,4.85
6.870,-1.51,2.87,3.46,4.74
6.880,-1.03,2.45,4.20,4.98
6.890,-0.56,2.16,4.64,5.15
6.900,0.01,1.77,4.37,4.72
6.910,0.60,1.13,3.27,3.51
6.921,0.86,0.32,2.05,2.24
6.931,0.94,-0.45,1.06,1.49
6.941,0.96,-0.93,0.18,1.35
6.951,0.81,-1.71,0.17,1.90
6.961,0.95,-2.41,0.29,2.61
6.971,0.97,-2.76,0.22,2.94
6.981,0.88,-2.99,0.10,3.12
6.991,0.72,-3.12,-0.28,3.21
7.001,0.70,-3.16,-0.81,3.34
7.011,0.75,-3.28,-1.35,3.63
7.021,0.78,-3.45,-1.68,3.92
7.031,0.81,-3.60,-1.84,4.12
7.041,0.88,-3.65,-2.05,4.27
7.051,0.90,-3.64,-2.22,4.35
7.062,0.70,-3.38,-2.14,4.06
7.071,0.35,-2.76,-1.69,3.26
7.082,0.05,-1.92,-1.22,2.28
7.092,-0.31,-1.13,-0.88,1.46
7.102,-0.76,-0.21,-0.55,0.96
7.112,-1.29,0.52,-0.39,1.45
7.122,-2.19,1.42,-0.42,2.65
7.132,-3.16,2.71,-0.65,4.22
7.142,-4.07,3.63,-0.71,5.50
7.152,-4.75,4.03,-0.28,6.23
7.162,-4.72,3.98,0.22,6.18
7.172,-4.08,3.40,0.98,5.40
7.182,-3.60,2.53,2.41,5.02
7.192,-3.19,2.02,3.88,5.42
7.202,-2.64,2.02,4.38,5.50
7.213,-2.22,1.76,4.38,5.21
7.223,-1.81,1.35,4.69,5.20
7.233,-1.10,0.97,4.22,4.47
7.243,-0.31,0.10,2.99,3.01
7.253,0.44,-1.02,1.81,2.13
7.263,1.26,-1.95,0.93,2.49
7.273,2.03,-2.55,0.41,3.29
7.283,2.60,-2.87,0.23,3.88
7.293,3.02,-3.08,-0.45,4.34
7.303,3.38,-3.21,-1.59,4.93
7.313,3.66,-3.37,-2.67,5.64
7.323,3.75,-3.51,-3.56,6.25
7.333,3.73,-3.65,-3.97,6.56
7.344,3.67,-3.92,-3.87,6.62
7.354,3.63,-4.27,-3.80,6.77
7.364,3.43,-4.49,-4.03,6.94
7.374,3.11,-4.54,-4.30,6.98
7.384,2.69,-4.52,-4.37,6.84
7.394,2.08,-4.02,-4.25,6.21
7.404,1.29,-2.88,-3.93,5.04
7.414,0.70,-1.81,-3.06,3.63
7.424,0.37,-1.37,-1.94,2.40
7.434,0.09,-0.84,-1.27,1.53
7.444,-0.27,0.26,-0.93,1.01
7.454,-1.01,1.91,-0.76,2.29
7.464,-2.16,4.09,-1.01,4.73
7.474,-3.38,6.26,-1.41,7.26
7.484,-4.22,6.92,-0.99,8.17
7.495,-4.33,6.52,0.16,7.83
7.505,-3.43,6.43,1.51,7.44
7.515,-2.13,6.24,3.09,7.28
7.525,-0.17,5.94,3.94,7.13
7.535,0.87,5.64,4.61,7.34
7.545,1.27,5.79,4.94,7.72
7.555,1.99,5.74,5.02,7.88
7.565,2.63,4.73,4.93,7.32
7.575,2.85,3.64,3.77,5.97
7.585,2.78,2.73,3.16,5.01
7.595,2.72,-0.00,3.19,4.19
7.605,2.66,-1.03,1.32,3.14
7.616,2.66,-1.15,0.82,3.02
7.625,2.65,-1.96,0.99,3.44
7.636,2.33,-2.48,0.31,3.42
7.646,1.75,-2.62,-0.71,3.23
7.656,1.07,-2.82,-1.62,3.43
7.666,0.44,-3.09,-2.25,3.85
7.676,0.08,-3.43,-2.78,4.42
7.686,-0.05,-3.86,-3.21,5.02
7.696,-0.17,-4.26,-3.45,5.48
7.706,-0.33,-4.53,-3.25,5.59
7.716,-0.32,-4.76,-2.68,5.47
7.726,-0.22,-4.92,-2.13,5.36
7.736,-0.33,-4.68,-1.95,5.08
7.746,-0.39,-4.05,-1.80,4.45
7.756,-0.65,-3.11,-1.39,3.46
7.767,-0.50,-1.94,-1.62,2.58
7.777,-1.08,-1.65,-1.29,2.36
7.787,-1.53,-1.16,-0.66,2.03
7.797,-2.20,-0.02,-0.24,2.21
7.807,-3.17,1.53,0.14,3.52
7.817,-4.18,3.23,0.47,5.30
7.827,-4.81,4.55,0.57,6.65
7.837,-4.83,5.06,0.80,7.04
7.847,-4.33,4.84,1.10,6.59
7.857,-3.63,4.61,1.80,6.14
7.867,-3.15,4.86,2.25,6.21
7.877,-2.94,5.23,2.25,6.41
7.887,-2.86,5.50,2.33,6.62
7.898,-2.91,5.42,2.08,6.49
7.908,-2.70,5.15,1.52,6.01
7.918,-2.39,4.45,0.94,5.14
7.928,-2.09,3.49,0.39,4.09
7.938,-1.79,2.33,-0.03,2.94
7.948,-1.56,1.02,-0.32,1.89
7.958,-1.25,-0.35,-0.69,1.47
7.968,-0.80,-1.69,-1.36,2.31
7.978,-0.36,-2.66,-1.98,3.34
7.988,0.05,-3.10,-2.37,3.90
7.998,0.38,-3.50,-2.66,4.41
8.008,0.60,-4.20,-2.95,5.17
8.018,0.70,-4.72,-3.37,5.84
8.029,0.81,-4.92,-3.77,6.25
8.038,1.06,-5.04,-3.94,6.49
8.049,1.30,-5.13,-3.72,6.46
8.059,1.55,-5.13,-3.27,6.27
8.069,1.71,-5.03,-2.95,6.08
8.079,1.65,-4.70,-2.75,5.68
8.089,1.42,-4.02,-2.54,4.96
8.099,1.16,-3.01,-2.54,4.11
8.109,1.15,-2.16,-2.62,3.58
8.119,1.58,-1.86,-2.37,3.40
8.129,1.89,-1.59,-1.70,3.00
8.139,1.87,-0.96,-0.65,2.20
8.149,1.44,-0.16,-0.02,1.45
8.159,0.89,0.73,-0.08,1.16
8.169,0.06,2.02,-0.35,2.05
8.180,-0.87,3.39,-0.80,3.59
8.190,-1.69,4.09,-0.76,4.49
8.200,-2.22,4.28,-0.42,4.84
8.210,-2.16,4.08,0.21,4.62
8.220,-1.48,3.46,1.38,4.01
8.230,-0.90,3.14,2.51,4.12
8.240,-0.52,3.17,2.77,4.25
8.250,-0.06,3.21,2.49,4.06
8.260,0.47,3.15,2.51,4.06
8.270,1.45,3.29,2.43,4.33
8.280,2.14,3.29,1.57,4.22
8.290,2.16,2.85,0.94,3.70
8.300,1.91,2.19,0.39,2.93
8.311,1.69,1.57,0.16,2.32
8.321,1.62,1.00,0.05,1.90
8.331,1.83,0.43,0.05,1.88
8.341,1.97,-0.21,0.10,1.98
8.351,1.80,-0.74,0.03,1.94
8.361,1.64,-0.89,-0.41,1.91
8.371,1.73,-0.86,-0.90,2.13
8.381,1.70,-1.07,-1.15,2.31
8.391,1.51,-1.23,-1.42,2.41
8.401,1.03,-1.40,-1.68,2.42
8.411,0.61,-1.65,-1.56,2.35
8.421,0.34,-1.77,-1.34,2.25
8.431,0.14,-1.80,-1.39,2.28
8.442,-0.22,-1.68,-1.51,2.27
8.452,-0.61,-1.47,-1.44,2.15
8.462,-0.84,-1.15,-1.23,1.88
8.472,-0.95,-0.55,-0.88,1.41
8.482,-0.90,-0.12,-0.58,1.07
8.492,-0.79,-0.12,-0.30,0.86
8.502,-0.81,-0.17,0.19,0.85
8.512,-1.05,0.13,0.55,1.20
8.522,-1.48,0.82,0.57,1.79
8.532,-1.88,1.62,0.41,2.52
8.542,-2.07,2.24,0.30,3.07
8.552,-2.07,2.53,0.45,3.30
8.562,-2.05,2.74,0.76,3.50
8.573,-2.12,2.88,1.16,3.76
8.583,-2.36,2.88,1.65,4.07
8.593,-2.49,2.71,2.39,4.39
8.603,-2.33,2.51,3.17,4.67
8.613,-1.97,2.27,3.29,4.46
8.623,-1.62,1.94,2.99,3.91
8.633,-1.46,1.47,2.66,3.37
8.643,-1.35,0.96,2.06,2.64
8.653,-1.11,0.37,1.30,1.75
8.663,-0.79,-0.27,0.79,1.15
8.673,-0.45,-0.74,0.41,0.96
8.683,-0.09,-1.04,0.07,1.05
8.693,0.32,-1.36,-0.26,1.42
8.704,0.69,-1.65,-0.64,1.90
8.714,1.02,-1.89,-1.03,2.39
8.724,1.28,-2.15,-1.37,2.85
8.734,1.51,-2.38,-1.66,3.27
8.744,1.82,-2.54,-2.14,3.79
8.754,2.10,-2.75,-2.49,4.26
8.764,2.25,-2.85,-2.57,4.45
8.774,2.42,-2.68,-2.82,4.59
8.784,2.54,-2.48,-3.00,4.65
8.794,2.45,-2.31,-2.88,4.43
8.804,2.33,-2.18,-2.65,4.15
8.814,2.25,-1.93,-2.37,3.80
8.824,2.25,-1.67,-2.16,3.53
8.834,2.31,-1.75,-1.75,3.38
8.844,2.32,-1.88,-1.15,3.20
8.854,2.06,-1.62,-0.53,2.67
8.865,1.65,-0.95,-0.31,1.93
8.875,0.96,-0.26,-0.73,1.24
8.885,0.03,0.50,-1.08,1.19
8.895,-0.77,1.44,-1.04,1.94
8.905,-1.49,2.30,-0.87,2.87
8.915,-2.29,2.94,-0.48,3.76
8.925,-2.87,3.25,0.04,4.34
8.935,-3.06,3.29,0.59,4.53
8.945,-2.78,3.15,1.07,4.33
8.955,-2.20,2.87,1.58,3.95
8.965,-1.55,2.53,2.01,3.58
8.975,-0.89,2.07,2.50,3.37
8.985,-0.41,1.55,2.96,3.36
8.996,-0.08,0.89,3.17,3.29
9.005,0.24,0.25,2.87,2.89
9.016,0.49,-0.31,2.08,2.16
9.026,0.57,-0.72,1.41,1.68
9.036,0.47,-0.97,1.34,1.72
9.046,0.13,-1.02,1.55,1.86
9.056,-0.25,-1.12,1.26,1.70
9.066,-0.55,-1.31,0.61,1.55
9.076,-0.59,-1.43,0.10,1.56
9.086,-0.61,-1.55,-0.02,1.67
9.096,-0.52,-1.54,0.48,1.69
9.106,-0.50,-1.43,0.19,1.53
9.116,-0.46,-1.40,-0.50,1.55
9.126,-0.40,-1.05,-0.69,1.31
9.137,-0.44,-0.58,-0.57,0.92
9.147,-0.59,-0.24,-0.40,0.75
9.157,-0.67,-0.05,-0.17,0.69
9.167,-0.61,0.13,0.29,0.68
9.177,-0.55,0.35,0.88,1.10
9.187,-0.49,0.70,1.17,1.45
9.197,-0.38,0.89,0.93,1.34
9.207,-0.41,1.05,0.77,1.37
9.217,-0.64,1.47,0.82,1.80
9.227,-0.96,1.96,0.74,2.31
9.237,-0.95,1.84,0.90,2.26
9.247,-0.83,1.74,1.23,2.28
9.257,-0.81,1.45,1.43,2.20
9.267,-0.56,0.90,1.77,2.06
9.278,-0.40,0.29,2.66,2.71
9.288,-0.40,0.12,3.31,3.34
9.298,-0.17,0.60,2.99,3.05
9.308,0.24,0.43,2.40,2.45
9.318,0.48,-0.02,1.78,1.84
9.328,0.72,-0.15,1.02,1.26
9.338,0.61,-0.32,0.28,0.75
9.348,0.46,-0.56,-0.22,0.76
9.358,0.37,-0.66,-0.69,1.02
9.368,0.34,-0.67,-1.24,1.45
9.378,0.35,-0.82,-1.54,1.78
9.388,0.39,-0.98,-1.70,2.00
9.399,0.53,-1.16,-1.82,2.22
9.409,0.69,-1.36,-1.72,2.30
9.419,0.77,-1.53,-1.66,2.39
9.429,0.79,-1.81,-1.87,2.72
9.439,0.84,-2.11,-2.08,3.08
9.449,1.04,-2.28,-2.14,3.30
9.459,1.31,-2.30,-2.28,3.50
9.469,1.45,-1.84,-2.37,3.33
9.479,1.43,-2.62,-1.59,3.38
9.489,1.69,-2.49,-1.63,3.42
9.499,1.83,-1.59,-1.64,2.92
9.509,1.93,-1.06,-1.03,2.43
9.519,2.12,-1.34,-0.32,2.53
9.529,2.38,-1.70,0.00,2.92
9.540,2.38,-1.92,0.50,3.10
9.550,1.91,-2.03,0.94,2.95
9.560,1.68,-1.13,0.63,2.12
9.570,1.61,0.11,-0.17,1.62
9.580,1.53,0.88,-1.05,2.06
9.590,1.43,1.42,-0.99,2.25
9.600,0.24,1.85,0.44,1.91
9.610,-1.19,2.05,2.05,3.14
9.620,-1.88,2.85,2.46,4.21
9.630,-2.48,3.38,2.34,4.80
9.640,-2.74,3.41,2.27,4.93
9.650,-2.51,3.51,2.22,4.85
9.660,-1.84,3.38,2.01,4.34
9.671,-1.35,2.93,1.72,3.66
9.681,-0.42,2.74,0.98,2.94
9.691,-0.37,2.16,-0.14,2.20
9.701,-0.30,1.30,-0.12,1.34
9.711,-0.10,0.91,-0.40,1.00
9.721,0.00,0.30,-1.10,1.14
9.731,0.15,-0.38,-1.54,1.59
9.741,0.20,-1.00,-1.83,2.10
9.751,0.47,-1.46,-1.90,2.44
9.761,1.05,-1.66,-2.09,2.87
9.771,1.12,-1.80,-2.31,3.14
9.781,0.70,-1.95,-2.38,3.15
9.791,0.42,-1.79,-2.03,2.74
9.801,0.06,-1.42,-1.23,1.88
9.811,-0.26,-1.26,-1.01,1.64
9.822,-0.21,-0.51,-1.12,1.25
9.832,-0.30,-0.40,-1.13,1.24
9.842,-0.40,-0.29,-0.78,0.92
9.852,-0.70,-0.07,-0.16,0.72
9.862,-1.04,0.01,0.38,1.11
9.872,-1.18,-0.07,0.82,1.44
9.882,-1.11,-0.21,1.08,1.56
9.892,-0.99,-0.14,1.09,1.48
9.902,-0.83,0.49,0.58,1.12
9.912,-0.80,0.00,0.30,0.86
9.922,-0.59,-0.18,-0.30,0.69
9.932,-0.22,0.26,-0.95,1.01
9.942,-0.43,0.77,-0.67,1.10
9.952,-0.56,1.04,0.33,1.23
9.963,-0.50,1.16,1.36,1.86
9.973,-0.67,1.08,1.73,2.14
9.983,-0.38,1.16,1.76,2.14
9.993,-0.50,1.07,1.89,2.23
10.003,-0.58,0.84,1.55,1.86
10.013,-0.42,0.88,1.16,1.51
10.023,-0.37,1.08,0.89,1.45
10.033,-0.43,1.15,0.75,1.44
10.043,-0.53,0.90,0.63,1.22
10.053,-0.61,0.51,0.43,0.91
10.064,-0.56,0.21,0.28,0.66
10.073,-0.35,-0.01,0.19,0.40
10.083,-0.06,-0.19,0.03,0.21
10.093,0.12,-0.36,-0.25,0.45
10.104,0.11,-0.70,-0.51,0.87
10.114,0.10,-1.13,-0.73,1.35
10.124,0.12,-1.44,-1.06,1.79
10.134,0.12,-1.66,-1.59,2.30
10.144,-0.02,-1.87,-1.83,2.61
10.154,-0.10,-2.08,-1.79,2.74
10.164,-0.07,-2.26,-1.84,2.91
10.174,0.07,-2.49,-1.85,3.10
10.184,0.05,-2.73,-1.93,3.35
10.194,-0.09,-2.74,-1.96,3.37
10.204,-0.20,-2.50,-1.91,3.15
10.214,-0.17,-2.11,-1.93,2.86
10.224,-0.05,-1.69,-1.77,2.45
10.235,0.17,-1.27,-1.40,1.90
10.245,0.42,-0.95,-1.01,1.44
10.255,0.58,-0.70,-0.64,1.11
10.265,0.47,-0.37,-0.35,0.70
10.275,0.33,-0.00,-0.13,0.36
10.285,0.21,0.01,0.20,0.29
10.295,0.06,0.09,0.48,0.50
10.305,-0.02,0.59,0.61,0.85
10.315,0.02,1.05,0.65,1.23
10.325,0.03,1.19,0.63,1.35
10.335,-0.16,1.34,0.84,1.60
10.345,-0.49,1.60,1.22,2.08
10.355,-0.90,1.86,1.52,2.57
10.366,-1.10,2.27,1.63,3.00
10.376,-1.06,2.65,1.84,3.40
10.386,-0.92,2.64,2.17,3.54
10.396,-0.62,2.31,2.07,3.17
10.406,-0.56,1.74,1.14,2.16
10.417,-0.50,1.41,1.72,2.28
10.426,0.14,1.16,2.05,2.37
10.436,1.00,1.09,1.88,2.39
10.446,1.24,0.97,1.56,2.21
10.456,1.24,0.83,1.25,1.95
10.466,1.22,0.74,0.93,1.70
10.476,1.18,0.61,0.48,1.41
10.486,1.04,0.51,0.13,1.17
10.496,0.78,0.49,-0.15,0.93
10.506,0.73,0.28,-0.51,0.93
10.517,0.43,0.04,-0.59,0.73
10.527,0.09,0.22,-0.68,0.72
10.537,-0.23,0.59,-0.71,0.95
