time,ax,ay,az,atotal
0.000,-0.21,0.34,-0.02,0.40
0.010,0.02,0.35,-0.24,0.42
0.020,0.19,0.31,-0.54,0.65
0.030,0.33,0.34,-0.60,0.76
0.040,0.33,0.12,-0.40,0.53
0.051,0.28,0.52,-0.25,0.64
0.060,0.16,-0.14,-1.44,1.46
0.070,1.35,-0.68,-2.45,2.87
0.081,1.44,-0.04,-1.81,2.31
0.091,1.97,0.43,0.20,2.02
0.101,1.82,0.36,0.48,1.92
0.111,0.86,-1.60,1.01,2.08
0.121,0.86,-2.00,1.62,2.71
0.131,0.22,-1.70,0.32,1.74
0.141,0.60,-2.17,-0.32,2.28
0.151,0.93,-2.35,-0.08,2.52
0.161,0.76,-1.28,-0.02,1.49
0.171,1.10,0.39,-0.14,1.18
0.181,1.79,1.53,-0.59,2.43
0.191,1.81,1.25,-1.60,2.72
0.201,1.21,0.63,-2.92,3.23
0.212,1.24,-0.13,-4.24,4.42
0.222,1.39,-0.22,-4.64,4.85
0.232,1.05,0.23,-3.16,3.34
0.242,-0.20,0.47,0.32,0.61
0.252,-0.78,0.12,2.22,2.36
0.262,-0.18,-0.01,0.24,0.30
0.272,0.49,0.01,-2.01,2.07
0.282,0.73,-0.04,-2.74,2.83
0.292,0.15,0.05,-2.11,2.11
0.302,-1.43,-0.20,-1.04,1.78
0.312,-3.41,-0.03,0.20,3.41
0.322,-4.89,0.55,0.59,4.95
0.333,-4.93,1.57,-0.12,5.18
0.343,-2.79,0.67,-1.00,3.03
0.353,0.37,-1.12,-1.22,1.70
0.363,0.81,-1.17,-1.64,2.17
0.373,0.56,-0.77,-1.30,1.61
0.383,-0.25,-1.23,-0.75,1.46
0.393,-0.63,-1.40,-0.44,1.60
0.403,0.05,-0.89,0.58,1.06
0.413,-0.08,-0.63,1.09,1.26
0.423,-0.32,-0.31,1.68,1.74
0.433,-0.55,0.12,2.77,2.83
0.443,-0.89,0.61,3.75,3.90
0.453,-0.70,1.26,4.20,4.44
0.463,-0.62,1.96,5.02,5.42
0.473,-1.42,2.32,6.22,6.79
0.483,-2.20,2.86,6.86,7.75
0.494,-2.08,4.17,6.91,8.33
0.504,-2.38,3.77,7.21,8.48
0.514,-2.53,3.83,7.41,8.71
0.524,-2.79,3.94,7.61,9.01
0.534,-2.86,3.84,7.62,9.00
0.544,-2.65,3.79,7.58,8.88
0.554,-2.34,3.80,7.56,8.78
0.564,-2.11,3.75,7.26,8.44
0.574,-1.86,3.43,6.53,7.61
0.584,-1.70,2.73,5.47,6.35
0.594,-1.47,1.67,4.24,4.78
0.604,-1.17,0.52,2.75,3.03
0.614,-0.83,-0.54,1.19,1.55
0.625,-0.24,-1.73,-0.39,1.79
0.635,0.24,-2.87,-1.84,3.42
0.645,0.58,-3.64,-2.89,4.68
0.655,0.95,-4.15,-3.60,5.58
0.665,1.43,-4.76,-4.35,6.60
0.675,1.85,-5.36,-5.22,7.70
0.685,2.19,-5.96,-5.91,8.67
0.695,2.43,-6.48,-6.42,9.44
0.705,2.75,-6.52,-6.42,9.55
0.715,1.90,-6.88,-7.83,10.59
0.725,2.15,-6.87,-7.65,10.51
0.735,2.04,-6.82,-7.66,10.46
0.745,2.09,-6.51,-8.28,10.73
0.756,2.25,-6.33,-8.40,10.76
0.766,2.24,-6.16,-8.26,10.55
0.776,2.28,-5.64,-8.34,10.32
0.786,2.15,-5.04,-8.13,9.80
0.796,1.75,-3.77,-7.88,8.91
0.806,1.56,-2.19,-7.83,8.28
0.816,1.05,-0.41,-6.75,6.84
0.826,0.87,0.63,-5.97,6.07
0.836,0.14,1.62,-4.57,4.85
0.846,-1.04,2.78,-1.81,3.48
0.856,-1.91,5.47,-0.00,5.79
0.866,-2.82,8.47,1.68,9.09
0.876,-3.10,10.06,2.87,10.92
0.886,-3.17,10.43,4.27,11.70
0.897,-3.14,11.05,5.84,12.88
0.906,-2.88,12.04,7.24,14.34
0.917,-2.06,12.30,8.32,14.99
0.927,-0.87,11.23,9.05,14.45
0.937,0.03,9.64,9.89,13.81
0.947,0.60,8.16,10.52,13.33
0.957,0.95,6.45,10.68,12.51
0.967,0.96,4.63,10.35,11.38
0.977,0.70,2.93,9.46,9.93
0.987,0.55,1.05,7.70,7.79
0.997,0.75,-0.77,5.33,5.44
1.007,1.26,-2.34,2.65,3.76
1.018,1.81,-3.65,-0.12,4.08
1.028,2.32,-4.51,-2.40,5.61
1.038,2.43,-4.93,-4.19,6.91
1.048,2.49,-5.24,-5.57,8.05
1.058,2.67,-5.60,-6.75,9.17
1.068,2.76,-5.94,-7.77,10.16
1.078,2.74,-6.40,-8.45,10.94
1.088,2.83,-6.85,-8.84,11.53
1.098,2.88,-7.46,-9.27,12.24
1.108,2.81,-7.94,-9.49,12.69
1.118,2.50,-8.11,-9.51,12.75
1.128,2.02,-8.02,-9.48,12.58
1.138,1.44,-7.45,-9.18,11.91
1.148,0.68,-6.46,-8.51,10.70
1.158,0.09,-5.40,-7.44,9.19
1.168,-0.64,-3.90,-5.86,7.07
1.179,-1.60,-1.59,-3.98,4.57
1.189,-2.50,1.03,-2.28,3.54
1.199,-3.03,3.43,-0.72,4.63
1.209,-3.39,5.64,0.66,6.62
1.219,-3.84,7.22,1.98,8.42
1.229,-4.48,8.94,3.48,10.58
1.239,-4.70,10.80,4.99,12.79
1.249,-3.86,11.89,6.11,13.92
1.259,-2.18,11.51,7.10,13.70
1.269,-0.04,10.08,7.80,12.75
1.279,1.63,8.68,7.99,11.91
1.289,2.75,7.31,7.75,11.00
1.299,3.08,5.73,7.64,10.04
1.309,2.84,3.89,7.59,8.99
1.320,1.89,1.75,7.44,7.88
1.330,0.90,-0.54,6.66,6.75
1.340,0.45,-2.80,4.94,5.70
1.350,0.64,-4.68,2.90,5.55
1.360,1.13,-5.94,0.99,6.13
1.370,1.69,-6.66,-0.59,6.90
1.380,2.16,-6.94,-2.02,7.54
1.390,2.36,-6.81,-3.44,7.98
1.400,2.19,-6.59,-4.67,8.37
1.410,1.73,-6.40,-5.62,8.69
1.420,1.12,-6.60,-6.39,9.26
1.430,0.61,-6.93,-7.10,9.94
1.440,0.23,-7.14,-7.69,10.49
1.451,-0.03,-7.26,-8.12,10.90
1.461,-0.34,-7.16,-8.55,11.16
1.471,-0.80,-6.75,-8.69,11.03
1.481,-1.43,-5.75,-8.44,10.31
1.491,-2.15,-4.56,-7.94,9.40
1.501,-3.00,-2.81,-7.16,8.26
1.511,-3.83,-0.76,-5.87,7.05
1.521,-4.57,1.86,-4.32,6.56
1.531,-5.02,4.59,-2.91,7.40
1.541,-4.84,6.25,-1.53,8.06
1.551,-4.33,7.65,0.03,8.79
1.561,-4.56,9.26,1.98,10.51
1.571,-5.09,10.79,3.83,12.53
1.582,-4.44,11.19,4.72,12.93
1.591,-3.06,10.35,5.44,12.08
1.602,-1.71,8.71,6.43,10.96
1.612,-0.71,6.90,7.22,10.01
1.622,-0.05,5.33,7.79,9.44
1.632,0.21,3.53,8.29,9.02
1.642,0.37,1.56,8.63,8.78
1.652,0.05,-0.18,8.59,8.59
1.662,-0.41,-1.48,7.96,8.11
1.672,-0.47,-2.61,6.18,6.73
1.682,-0.13,-3.63,3.84,5.29
1.692,0.44,-4.16,2.18,4.72
1.702,0.98,-4.51,0.86,4.70
1.712,1.43,-4.92,-0.71,5.17
1.723,2.01,-5.26,-2.15,6.03
1.733,2.32,-5.60,-3.30,6.90
1.743,2.30,-5.73,-4.37,7.57
1.753,2.21,-5.63,-5.36,8.08
1.763,2.04,-5.51,-6.19,8.54
1.773,1.79,-5.37,-6.77,8.83
1.783,1.46,-5.24,-6.98,8.85
1.793,1.07,-5.08,-7.01,8.72
1.803,0.65,-4.68,-6.69,8.19
1.813,0.21,-4.01,-6.13,7.32
1.823,-0.09,-3.39,-5.42,6.39
1.833,-0.21,-2.86,-4.42,5.27
1.843,-0.44,-1.99,-3.05,3.67
1.853,-0.81,-1.03,-1.35,1.88
1.864,-0.86,-0.15,0.15,0.88
1.874,-0.69,0.90,1.03,1.53
1.884,-0.73,2.17,1.94,3.00
1.894,-0.75,3.86,2.91,4.89
1.904,-0.97,5.39,3.71,6.61
1.914,-0.72,6.11,4.23,7.47
1.924,0.11,6.40,4.68,7.92
1.934,1.28,6.67,5.01,8.44
1.944,2.41,6.72,5.23,8.85
1.954,3.08,6.51,5.34,8.97
1.964,3.49,5.99,5.49,8.84
1.974,3.78,4.99,5.60,8.40
1.984,3.97,3.87,5.45,7.78
1.995,3.81,2.54,4.93,6.73
2.005,3.53,1.15,4.00,5.46
2.015,3.34,0.08,2.71,4.30
2.025,3.12,-1.08,1.72,3.72
2.035,2.90,-2.09,0.90,3.69
2.045,2.59,-2.75,-0.15,3.78
2.055,1.99,-3.06,-1.20,3.85
2.065,1.31,-3.09,-2.26,4.05
2.075,0.66,-3.37,-3.28,4.74
2.085,0.15,-3.96,-4.26,5.82
2.095,-0.42,-4.66,-5.03,6.86
2.105,-1.07,-5.34,-5.45,7.71
2.115,-1.69,-5.96,-5.69,8.41
2.126,-2.11,-6.50,-5.71,8.90
2.136,-2.33,-6.87,-5.58,9.15
2.146,-2.30,-6.97,-5.56,9.21
2.156,-2.17,-6.78,-5.59,9.05
2.166,-2.15,-6.23,-5.36,8.49
2.176,-2.39,-5.06,-4.94,7.46
2.186,-2.69,-3.60,-4.41,6.30
2.196,-2.99,-2.04,-3.86,5.29
2.206,-3.44,-0.12,-3.22,4.72
2.216,-3.91,1.83,-2.34,4.91
2.226,-4.32,3.55,-1.15,5.71
2.236,-4.58,5.16,0.06,6.90
2.246,-4.90,6.91,1.31,8.58
2.256,-5.03,8.37,2.46,10.07
2.266,-4.46,9.04,3.43,10.65
2.277,-3.24,9.03,4.64,10.65
2.287,-1.59,8.51,5.72,10.38
2.297,-0.02,7.81,6.14,9.93
2.307,1.05,7.11,6.17,9.47
2.317,1.45,6.16,6.22,8.88
2.327,1.74,4.64,6.34,8.05
2.337,1.93,2.70,6.36,7.18
2.347,1.82,0.76,5.85,6.17
2.357,1.70,-0.82,4.95,5.29
2.367,1.76,-2.26,3.85,4.80
2.377,1.72,-3.31,2.71,4.61
2.387,1.49,-3.69,1.49,4.25
2.397,1.35,-3.80,0.23,4.04
2.408,1.30,-3.97,-1.09,4.31
2.417,1.26,-4.10,-2.35,4.89
2.428,1.12,-4.14,-3.44,5.50
2.438,0.86,-4.19,-4.36,6.11
2.448,0.66,-4.32,-5.10,6.72
2.458,0.64,-4.59,-5.83,7.45
2.468,0.82,-4.94,-6.39,8.12
2.478,0.97,-5.22,-6.58,8.46
2.488,0.84,-5.30,-6.40,8.35
2.498,0.46,-4.78,-5.95,7.65
2.508,0.02,-3.61,-5.24,6.37
2.518,-0.36,-2.48,-4.19,4.88
2.528,-0.28,-1.69,-3.27,3.69
2.539,-0.14,-1.13,-2.69,2.92
2.549,-0.18,-0.06,-2.19,2.20
2.559,-0.58,2.05,-1.58,2.66
2.569,-1.23,4.64,-0.55,4.83
2.579,-1.65,6.74,0.46,6.95
2.589,-1.97,8.51,1.45,8.86
2.599,-2.09,9.69,2.36,10.19
2.609,-1.56,9.75,2.81,10.27
2.619,-0.61,8.73,3.03,9.26
2.629,0.51,7.31,3.36,8.06
2.639,1.48,5.65,3.85,7.00
2.649,2.18,3.64,4.12,5.92
2.659,2.49,1.76,4.17,5.16
2.669,2.55,0.09,3.78,4.56
2.680,2.50,-1.45,2.85,4.06
2.689,2.39,-2.93,1.71,4.15
2.700,2.21,-4.19,0.31,4.75
2.710,2.06,-5.17,-1.29,5.71
2.720,1.92,-5.70,-2.61,6.55
2.730,1.89,-5.65,-3.87,7.10
2.740,1.85,-5.21,-5.03,7.48
2.750,1.90,-4.78,-6.06,7.95
2.760,2.00,-4.56,-7.06,8.64
2.770,1.90,-4.63,-7.80,9.26
2.780,1.72,-4.80,-8.28,9.72
2.790,1.19,-4.94,-8.24,9.68
2.800,0.47,-4.60,-7.74,9.01
2.810,-0.30,-3.47,-6.69,7.54
2.820,-0.99,-1.71,-5.30,5.66
2.831,-1.41,0.23,-3.54,3.82
2.841,-1.82,1.92,-1.52,3.05
2.851,-2.26,3.09,0.43,3.85
2.861,-2.61,3.59,2.52,5.10
2.871,-2.98,4.00,4.54,6.74
2.881,-3.26,4.74,6.50,8.68
2.891,-3.53,5.90,8.25,10.74
2.901,-3.49,7.19,9.76,12.62
2.911,-2.81,7.72,10.79,13.56
2.921,-1.56,7.38,11.45,13.71
2.931,-0.27,6.47,11.78,13.45
2.942,0.46,5.20,11.71,12.82
2.952,0.59,3.87,11.42,12.07
2.962,0.26,2.44,10.89,11.16
2.972,-0.56,1.18,9.97,10.06
2.982,-1.27,0.16,8.46,8.55
2.992,-1.71,-0.68,6.53,6.79
3.002,-1.53,-1.52,4.52,5.01
3.012,-0.96,-2.48,2.47,3.63
3.022,-0.19,-3.44,0.38,3.47
3.032,0.41,-4.15,-1.66,4.49
3.042,0.86,-4.61,-3.46,5.83
3.052,0.98,-4.88,-5.06,7.10
3.062,0.92,-5.21,-6.38,8.28
3.072,1.02,-5.80,-7.62,9.63
3.082,1.27,-6.53,-8.68,10.93
3.093,1.42,-7.22,-9.29,11.85
3.102,1.41,-7.77,-9.69,12.50
3.113,1.50,-8.16,-9.94,12.95
3.123,1.55,-8.31,-9.98,13.08
3.133,1.38,-7.90,-9.70,12.59
3.143,1.17,-6.99,-9.04,11.49
3.153,0.75,-5.57,-7.88,9.68
3.163,0.38,-3.91,-6.56,7.64
3.173,-0.04,-2.00,-5.19,5.56
3.183,-0.31,0.19,-3.46,3.48
3.193,-0.84,2.07,-2.75,3.54
3.203,-1.02,4.15,-1.08,4.41
3.213,-1.35,6.60,0.34,6.74
3.223,-1.61,8.80,1.64,9.10
3.233,-1.32,10.38,2.87,10.85
3.244,-0.26,10.80,3.60,11.39
3.254,1.42,9.72,4.53,10.81
3.264,3.24,8.13,5.27,10.22
3.274,4.41,6.42,5.74,9.68
3.284,5.11,4.24,6.18,9.07
3.294,4.94,2.05,6.50,8.42
3.304,4.05,0.31,6.72,7.86
3.314,2.76,-0.83,6.23,6.86
3.324,1.69,-1.77,5.15,5.70
3.334,1.17,-2.75,3.50,4.61
3.344,1.06,-3.76,1.53,4.19
3.354,1.51,-4.74,-0.20,4.98
3.365,1.94,-5.51,-1.80,6.11
3.374,2.05,-5.59,-3.04,6.68
3.385,1.97,-5.17,-4.02,6.84
3.395,1.79,-4.68,-4.90,7.01
3.405,1.59,-4.40,-5.72,7.39
3.415,1.16,-4.26,-6.29,7.69
3.425,0.42,-3.99,-6.56,7.68
3.435,-0.34,-3.55,-6.47,7.39
3.445,-1.11,-3.06,-6.16,6.97
3.455,-1.69,-2.33,-5.60,6.30
3.465,-2.21,-1.47,-4.89,5.56
3.475,-2.87,-0.37,-3.89,4.84
3.485,-3.63,1.15,-2.55,4.58
3.495,-4.30,2.79,-1.01,5.22
3.505,-4.93,4.10,0.47,6.43
3.516,-5.43,5.30,1.74,7.79
3.526,-5.79,6.52,2.78,9.16
3.536,-6.06,7.38,3.80,10.27
3.546,-6.45,7.92,4.77,11.27
3.556,-6.37,8.16,5.67,11.80
3.566,-5.71,7.66,6.52,11.57
3.576,-4.76,6.77,7.24,11.00
3.586,-3.63,5.42,7.53,9.97
3.596,-2.69,4.17,7.51,9.00
3.606,-1.84,2.95,7.42,8.19
3.616,-1.02,1.52,7.10,7.33
3.626,-0.36,-0.01,6.58,6.59
3.636,0.16,-1.51,5.75,5.95
3.646,0.59,-2.77,4.64,5.43
3.657,0.92,-3.50,3.19,4.82
3.667,1.30,-3.94,1.50,4.42
3.677,1.87,-4.19,-0.27,4.60
3.687,2.42,-4.16,-1.92,5.18
3.697,2.78,-3.88,-3.44,5.88
3.707,3.02,-3.74,-4.79,6.78
3.717,3.13,-3.78,-6.04,7.78
3.727,3.11,-3.98,-7.15,8.75
3.737,2.87,-4.46,-8.07,9.66
3.747,2.50,-5.03,-8.59,10.26
3.757,1.97,-5.42,-9.00,10.69
3.767,1.42,-5.59,-9.08,10.76
3.778,0.80,-5.63,-8.96,10.61
3.788,0.23,-5.50,-8.74,10.33
3.798,-0.31,-5.13,-8.26,9.73
3.808,-0.80,-4.34,-7.48,8.69
3.818,-1.11,-3.12,-6.51,7.30
3.828,-1.42,-1.20,-5.37,5.68
3.838,-1.96,1.18,-3.93,4.55
3.848,-2.53,3.22,-2.43,4.76
3.858,-2.96,4.53,-0.97,5.49
3.868,-3.30,5.34,0.45,6.30
3.878,-3.59,6.72,2.02,7.88
3.888,-3.35,8.00,3.68,9.42
3.899,-2.28,8.39,5.05,10.05
3.908,-0.79,8.24,5.98,10.21
3.919,0.79,7.53,6.51,9.99
3.928,2.54,5.99,6.79,9.40
3.939,4.04,4.41,7.03,9.23
3.949,4.90,3.23,7.25,9.33
3.959,5.26,2.06,7.31,9.24
3.969,5.24,0.57,6.89,8.68
3.979,4.85,-1.22,5.90,7.73
3.989,4.41,-3.06,4.69,7.13
3.999,3.81,-4.60,3.49,6.92
4.009,2.89,-5.38,2.25,6.51
4.019,1.88,-5.67,0.92,6.04
4.029,1.09,-5.91,-0.69,6.05
4.039,0.55,-5.96,-2.11,6.35
4.049,0.34,-5.77,-3.28,6.65
4.060,0.26,-5.70,-4.49,7.26
4.070,0.24,-5.63,-5.49,7.86
4.080,0.21,-5.63,-6.12,8.32
4.090,0.10,-5.73,-6.56,8.71
4.100,-0.19,-5.62,-6.86,8.87
4.110,-0.72,-5.28,-6.89,8.72
4.120,-1.32,-4.73,-6.83,8.41
4.130,-1.65,-4.26,-6.62,8.04
4.140,-1.86,-3.45,-6.33,7.45
4.150,-2.37,-1.86,-5.70,6.45
4.160,-3.18,0.13,-4.36,5.40
4.170,-3.88,2.09,-2.54,5.08
4.180,-4.21,3.56,-0.41,5.53
4.190,-3.90,4.36,1.44,6.02
4.201,-3.04,5.02,2.76,6.49
4.211,-2.21,5.85,4.21,7.54
4.221,-2.03,6.74,5.44,8.90
4.231,-1.89,7.44,6.29,9.92
4.241,-1.79,7.91,7.05,10.74
4.251,-1.88,8.36,7.60,11.45
4.261,-1.70,8.01,7.67,11.22
4.271,-1.35,6.99,7.42,10.28
4.281,-1.11,5.69,7.02,9.10
4.291,-1.06,4.36,6.47,7.87
4.301,-1.12,2.88,5.77,6.55
4.311,-1.17,1.29,4.83,5.14
4.322,-1.18,-0.15,3.64,3.83
4.331,-1.22,-1.32,2.42,3.01
4.342,-1.05,-2.33,1.24,2.84
4.352,-0.75,-3.08,0.11,3.17
4.362,-0.28,-3.82,-0.99,3.96
4.372,0.23,-4.68,-2.22,5.19
4.382,0.60,-5.39,-3.36,6.38
4.392,0.83,-5.96,-4.37,7.44
4.402,0.87,-6.31,-5.22,8.24
4.412,0.94,-6.59,-5.99,8.95
4.422,1.08,-7.01,-6.69,9.75
4.432,1.23,-7.20,-7.16,10.23
4.442,1.31,-7.13,-7.44,10.38
4.453,1.29,-6.98,-7.63,10.42
4.462,1.32,-6.70,-7.73,10.32
4.473,1.19,-6.09,-7.73,9.91
4.483,0.84,-5.30,-7.43,9.17
4.493,0.31,-4.15,-6.82,7.99
4.503,-0.42,-2.52,-6.02,6.54
4.513,-1.21,-0.50,-5.00,5.17
4.523,-1.87,1.47,-3.88,4.55
4.533,-2.51,2.97,-2.89,4.84
4.543,-3.31,4.40,-2.02,5.87
4.553,-4.26,6.26,-1.19,7.66
4.563,-4.58,7.71,-0.22,8.97
4.573,-3.78,8.28,0.96,9.15
4.583,-2.54,8.88,2.46,9.56
4.593,-0.93,9.03,3.38,9.68
4.604,1.04,8.45,3.66,9.27
4.614,3.07,7.61,3.98,9.12
4.624,4.59,6.39,4.31,8.97
4.634,5.60,4.71,4.80,8.75
4.644,6.11,2.86,5.28,8.57
4.654,5.74,1.00,5.53,8.04
4.664,4.59,-0.72,5.18,6.96
4.674,3.75,-2.22,4.19,6.04
4.684,3.03,-3.98,3.27,5.98
4.694,2.54,-5.35,2.29,6.35
4.704,2.20,-6.30,1.20,6.78
4.714,1.88,-6.99,0.27,7.24
4.724,1.58,-7.05,-0.74,7.26
4.735,1.23,-6.48,-1.81,6.84
4.745,0.84,-5.61,-2.86,6.35
4.755,0.38,-4.73,-4.00,6.20
4.765,-0.08,-4.16,-4.83,6.38
4.775,-0.40,-4.01,-5.17,6.56
4.785,-0.68,-4.05,-5.28,6.69
4.795,-1.01,-4.05,-5.22,6.68
4.805,-1.12,-4.01,-5.08,6.57
4.815,-1.22,-3.58,-4.84,6.14
4.825,-1.48,-2.65,-4.42,5.36
4.835,-1.84,-1.63,-3.83,4.55
4.845,-2.51,-0.39,-3.12,4.03
4.855,-3.02,1.09,-2.54,4.09
4.865,-3.49,2.32,-1.44,4.43
4.876,-4.20,3.46,-0.06,5.44
4.886,-4.82,4.70,1.35,6.87
4.896,-5.12,6.18,2.67,8.46
4.906,-5.18,7.87,3.61,10.09
4.916,-4.97,9.55,4.20,11.56
4.926,-4.30,10.58,4.68,12.35
4.936,-3.19,10.67,5.20,12.29
4.946,-1.83,9.86,5.59,11.48
4.956,-0.61,8.59,5.85,10.40
4.966,0.42,7.07,6.20,9.41
4.976,1.11,5.40,6.52,8.53
4.986,1.61,3.70,6.62,7.75
4.996,1.91,1.91,6.44,6.99
5.006,2.06,0.23,5.74,6.10
5.016,2.11,-1.13,4.71,5.28
5.027,2.23,-2.21,3.50,4.70
5.037,2.39,-3.16,2.23,4.55
5.047,2.55,-3.89,0.80,4.72
5.057,2.68,-4.49,-0.70,5.28
5.067,2.64,-4.93,-2.15,5.99
5.077,2.48,-5.16,-3.40,6.67
5.087,2.26,-5.34,-4.51,7.35
5.097,2.13,-5.64,-5.51,8.17
5.107,2.02,-6.03,-6.42,9.03
5.117,1.91,-6.42,-7.18,9.82
5.127,1.80,-6.76,-7.66,10.37
5.137,1.70,-7.03,-7.97,10.76
5.147,1.46,-7.12,-8.08,10.87
5.158,0.96,-6.81,-8.05,10.58
5.168,0.37,-6.12,-7.64,9.79
5.178,-0.20,-5.19,-7.02,8.73
5.188,-0.58,-4.27,-6.35,7.67
5.198,-1.03,-3.44,-5.46,6.53
5.208,-1.58,-2.59,-4.54,5.46
5.218,-1.98,-1.83,-3.57,4.47
5.228,-2.35,-0.78,-2.63,3.62
5.238,-3.04,1.57,-1.79,3.86
5.248,-3.80,5.11,-0.57,6.40
5.258,-3.81,8.30,0.59,9.15
5.268,-2.79,9.37,1.34,9.87
5.278,-0.84,9.05,2.37,9.39
5.289,1.32,8.74,3.05,9.35
5.298,3.06,7.93,3.10,9.05
5.309,4.47,7.04,3.16,8.92
5.319,5.40,6.30,3.45,8.99
5.329,5.58,5.08,4.00,8.54
5.339,5.18,3.25,4.75,7.74
5.349,4.39,1.45,5.10,6.88
5.359,3.26,-0.19,4.72,5.74
5.369,2.17,-1.65,3.75,4.64
5.379,1.69,-2.98,2.77,4.41
5.389,1.36,-3.96,1.85,4.58
5.399,1.01,-4.79,0.80,4.96
5.409,0.77,-5.47,-0.16,5.53
5.420,0.44,-5.73,-1.15,5.86
5.429,0.00,-5.64,-2.08,6.01
5.440,-0.51,-5.43,-2.80,6.14
5.450,-1.02,-5.24,-3.44,6.35
5.460,-1.49,-5.09,-3.89,6.58
5.470,-1.88,-4.96,-4.04,6.67
5.480,-2.20,-4.82,-4.09,6.69
5.490,-2.41,-4.58,-4.04,6.57
5.500,-2.66,-4.18,-3.90,6.31
5.510,-2.92,-3.36,-3.74,5.81
5.520,-3.14,-2.23,-3.31,5.08
5.530,-3.23,-1.32,-2.70,4.41
5.540,-3.40,-0.51,-1.89,3.92
5.550,-3.70,0.68,-0.90,3.87
5.561,-4.21,2.16,0.06,4.73
5.570,-4.58,3.76,1.04,6.02
5.581,-4.59,5.50,1.82,7.39
5.591,-4.43,7.01,2.47,8.66
5.601,-4.05,8.52,3.27,9.99
5.611,-3.00,9.43,3.90,10.63
5.621,-1.33,9.22,4.21,10.22
5.631,0.53,8.55,4.23,9.56
5.641,2.03,7.93,4.17,9.19
5.651,2.88,7.23,4.37,8.92
5.661,3.22,6.06,4.90,8.43
5.671,3.33,4.39,5.39,7.71
5.682,3.12,2.58,5.55,6.87
5.691,2.68,0.68,5.03,5.74
5.701,2.08,-1.12,4.08,4.71
5.712,1.48,-2.34,2.97,4.06
5.722,1.12,-3.07,1.78,3.72
5.732,0.80,-3.75,0.48,3.86
5.742,0.54,-4.38,-0.89,4.50
5.752,0.37,-4.80,-2.11,5.26
5.762,0.26,-5.04,-3.16,5.96
5.772,0.18,-5.35,-4.12,6.75
5.782,0.25,-5.77,-4.87,7.55
5.792,0.41,-6.20,-5.49,8.29
5.802,0.57,-6.50,-5.87,8.78
5.812,0.60,-6.55,-6.14,9.00
5.822,0.51,-6.29,-6.23,8.87
5.832,0.46,-5.83,-6.16,8.49
5.843,0.36,-5.15,-5.86,7.81
5.853,0.19,-4.21,-5.42,6.87
5.863,0.06,-3.17,-4.86,5.81
5.873,-0.16,-2.16,-4.18,4.70
5.883,-0.27,-1.18,-3.52,3.72
5.893,-0.16,-0.64,-2.86,2.93
5.903,-0.37,0.20,-2.10,2.14
5.913,-1.26,2.41,-1.05,2.91
5.923,-2.20,5.10,0.02,5.56
5.933,-2.52,6.97,1.12,7.49
5.943,-2.10,7.95,2.12,8.49
5.953,-1.12,8.33,2.94,8.90
5.963,0.20,8.24,3.56,8.97
5.973,1.54,7.60,3.88,8.67
5.984,2.74,6.75,3.98,8.30
5.994,3.53,5.73,4.03,7.85
6.004,4.08,4.22,4.14,7.18
6.014,4.30,2.58,4.23,6.56
6.024,4.02,0.91,3.83,5.63
6.034,3.34,-0.57,2.92,4.47
6.044,2.36,-1.60,1.88,3.42
6.054,1.60,-2.41,0.81,3.01
6.064,1.33,-3.43,-0.36,3.69
6.074,1.21,-4.53,-1.27,4.86
6.084,1.23,-5.41,-2.01,5.90
6.094,1.27,-5.93,-2.79,6.68
6.104,1.13,-6.16,-3.65,7.25
6.114,1.01,-6.11,-4.32,7.55
6.125,0.86,-5.93,-4.73,7.64
6.135,0.51,-5.77,-5.00,7.66
6.145,0.06,-5.56,-4.95,7.45
6.155,-0.54,-5.21,-4.57,6.95
6.165,-1.14,-4.75,-4.07,6.36
6.175,-1.63,-4.13,-3.49,5.65
6.185,-2.01,-3.52,-2.99,5.03
6.195,-2.27,-2.88,-2.52,4.45
6.205,-2.71,-1.97,-2.01,3.91
6.215,-3.30,-0.74,-1.49,3.70
6.225,-4.24,0.91,-0.84,4.42
6.236,-5.29,3.00,-0.07,6.08
6.245,-5.94,5.19,0.89,7.94
6.255,-6.30,7.40,1.69,9.86
6.266,-6.23,8.68,2.46,10.97
6.276,-5.36,8.88,3.05,10.81
6.286,-3.88,8.81,3.46,10.23
6.296,-2.24,8.61,3.70,9.64
6.306,-0.66,8.19,3.63,8.99
6.316,0.59,7.56,3.66,8.42
6.326,1.55,6.50,3.93,7.75
6.336,2.09,4.85,4.44,6.90
6.346,2.35,2.94,4.86,6.15
6.356,2.40,1.20,4.87,5.56
6.366,2.15,-0.29,4.46,4.96
6.376,1.95,-1.39,3.64,4.36
6.387,1.87,-2.18,2.64,3.90
6.396,1.79,-2.57,1.62,3.53
6.407,1.73,-2.72,0.58,3.28
6.417,1.65,-2.90,-0.69,3.41
6.427,1.55,-3.16,-1.82,3.96
6.437,1.41,-3.57,-2.83,4.77
6.447,1.44,-4.09,-3.85,5.80
6.457,1.61,-4.73,-4.74,6.89
6.467,1.77,-5.32,-5.46,7.83
6.477,2.05,-5.56,-6.14,8.53
6.487,2.27,-5.42,-6.57,8.81
6.497,2.03,-4.94,-6.58,8.47
6.507,1.58,-3.86,-6.52,7.74
6.517,1.30,-2.68,-6.33,7.00
6.527,1.23,-1.73,-5.93,6.30
6.537,1.08,-0.44,-5.37,5.49
6.548,0.68,0.89,-4.59,4.73
6.558,0.21,1.83,-3.29,3.77
6.568,-0.08,2.92,-1.94,3.51
6.578,-0.39,4.13,-0.62,4.19
6.588,-0.79,5.10,0.65,5.20
6.598,-1.29,5.61,1.81,6.04
6.608,-1.69,5.82,3.12,6.82
6.618,-1.74,5.85,4.40,7.53
6.628,-1.14,5.19,5.35,7.54
6.638,-0.12,3.94,6.04,7.21
6.648,0.91,2.52,6.64,7.16
6.658,1.62,1.05,6.89,7.16
6.668,1.89,-0.14,6.70,6.96
6.679,1.75,-1.06,6.04,6.38
6.689,1.31,-1.96,5.11,5.63
6.699,0.95,-2.66,3.87,4.79
6.709,0.60,-3.16,2.46,4.05
6.719,0.42,-3.70,1.05,3.87
6.729,0.49,-4.21,-0.29,4.25
6.739,0.48,-4.62,-1.37,4.84
6.749,0.31,-4.90,-2.21,5.39
6.759,0.17,-5.15,-3.11,6.01
6.769,-0.07,-5.33,-4.03,6.68
6.779,-0.28,-5.22,-4.61,6.97
6.789,-0.52,-4.87,-5.00,7.00
6.799,-0.80,-4.61,-5.18,6.98
6.810,-0.99,-4.51,-5.08,6.87
6.820,-1.29,-4.31,-4.87,6.63
6.830,-1.67,-3.81,-4.55,6.16
6.840,-2.17,-3.07,-4.07,5.54
6.850,-2.72,-2.16,-3.15,4.69
6.860,-3.22,-1.08,-2.13,4.01
6.870,-3.47,-0.04,-1.13,3.65
6.880,-3.65,0.81,-0.10,3.74
6.890,-3.89,1.71,0.84,4.33
6.900,-4.00,2.68,1.75,5.12
6.910,-4.15,3.69,2.68,6.16
6.920,-4.14,4.21,3.30,6.77
6.930,-3.93,4.59,3.59,7.03
6.940,-3.55,5.41,3.92,7.57
6.951,-2.86,5.77,4.12,7.64
6.961,-1.88,5.69,4.11,7.27
6.971,-0.98,5.52,4.09,6.94
6.981,-0.19,5.24,3.96,6.57
6.991,0.60,4.67,3.71,5.99
7.001,1.45,3.67,3.49,5.26
7.011,2.25,2.37,3.22,4.59
7.021,2.81,1.00,2.78,4.07
7.031,3.19,-0.27,2.10,3.83
7.041,3.32,-1.51,1.39,3.90
7.051,3.12,-2.52,0.57,4.05
7.061,2.71,-3.21,-0.36,4.22
7.072,2.28,-3.76,-1.27,4.58
7.082,1.99,-4.26,-2.18,5.18
7.092,1.93,-4.71,-2.96,5.88
7.102,1.92,-5.16,-3.63,6.59
7.112,1.92,-5.58,-4.04,7.15
7.122,1.83,-5.80,-4.34,7.47
7.132,1.72,-5.77,-4.53,7.53
7.142,1.57,-5.40,-4.58,7.26
7.152,1.42,-4.74,-4.51,6.69
7.162,1.08,-3.70,-4.15,5.67
7.172,0.56,-2.48,-3.61,4.41
7.182,0.18,-1.56,-3.00,3.39
7.192,0.23,-1.18,-2.67,2.93
7.203,0.60,-1.20,-2.92,3.22
7.212,0.12,-0.40,-2.94,2.97
7.223,-1.59,2.22,-1.89,3.32
7.233,-3.15,5.49,-0.58,6.36
7.243,-4.01,7.39,0.13,8.41
7.253,-4.31,7.77,0.54,8.90
7.263,-3.96,7.86,1.01,8.86
7.273,-3.05,7.97,1.42,8.65
7.283,-1.79,7.68,1.79,8.09
7.293,-0.56,7.07,2.06,7.38
7.304,0.59,6.25,2.15,6.64
7.313,1.46,5.35,1.92,5.86
7.323,2.32,4.12,1.62,5.00
7.334,3.09,2.54,1.43,4.25
7.344,3.35,0.69,1.15,3.61
7.354,3.35,-1.25,0.84,3.67
7.364,3.18,-3.00,0.62,4.41
7.374,2.88,-4.52,0.23,5.37
7.384,2.40,-5.52,-0.30,6.03
7.394,1.59,-5.88,-0.72,6.13
7.404,0.79,-5.75,-1.07,5.90
7.414,0.24,-5.51,-1.30,5.67
7.424,0.05,-5.44,-1.55,5.66
7.434,0.05,-5.43,-1.90,5.76
7.444,0.11,-5.36,-2.14,5.77
7.454,0.26,-5.32,-2.23,5.77
7.464,0.33,-5.27,-2.37,5.79
7.474,0.18,-4.92,-2.41,5.48
7.485,-0.34,-4.18,-2.14,4.71
7.495,-1.08,-3.23,-1.97,3.94
7.505,-1.75,-1.74,-1.80,3.06
7.515,-2.11,-0.62,-1.32,2.56
7.525,-2.39,0.12,-0.86,2.54
7.535,-2.88,1.91,-0.09,3.45
7.545,-3.62,3.66,0.39,5.16
7.555,-4.59,4.83,0.88,6.72
7.565,-4.98,5.80,1.17,7.73
7.575,-4.87,6.10,1.14,7.89
7.585,-4.88,6.50,1.24,8.22
7.595,-4.82,7.28,1.34,8.83
7.605,-4.61,7.65,1.44,9.04
7.616,-4.10,7.39,1.55,8.59
7.626,-3.43,6.66,1.64,7.67
7.636,-2.58,5.41,1.79,6.26
7.646,-1.56,3.69,1.95,4.46
7.656,-0.48,1.84,2.02,2.77
7.666,0.43,0.18,1.89,1.94
7.676,1.21,-1.33,1.43,2.30
7.686,1.60,-2.55,0.85,3.13
7.696,1.63,-3.38,0.20,3.76
7.706,1.43,-3.89,-0.46,4.17
7.716,1.19,-4.43,-1.16,4.74
7.726,1.16,-5.11,-2.01,5.61
7.736,1.19,-5.71,-2.73,6.43
7.746,1.00,-5.92,-3.36,6.88
7.756,0.78,-5.79,-3.95,7.05
7.767,0.72,-5.63,-4.47,7.23
7.777,0.78,-5.47,-4.85,7.35
7.787,0.86,-5.26,-5.03,7.33
7.797,0.90,-5.02,-5.05,7.18
7.807,0.91,-4.71,-5.00,6.93
7.817,0.68,-4.27,-4.73,6.40
7.827,0.43,-3.59,-4.06,5.44
7.837,0.22,-2.79,-3.46,4.45
7.847,0.02,-1.80,-2.86,3.38
7.857,-0.18,-0.77,-2.18,2.31
7.867,-0.49,0.17,-1.50,1.59
7.877,-0.98,1.55,-0.46,1.89
7.887,-1.62,3.45,1.01,3.94
7.898,-2.08,4.87,2.57,5.89
7.908,-1.78,5.91,3.39,7.04
7.918,-1.21,7.15,4.00,8.28
7.928,-0.28,8.40,4.75,9.65
7.938,1.23,8.52,5.13,10.02
7.948,2.97,7.81,5.04,9.76
7.958,4.30,6.70,5.10,9.45
7.968,4.99,5.02,5.08,8.71
7.978,5.46,3.02,4.95,7.96
7.988,5.50,0.90,4.85,7.39
7.998,4.90,-1.13,4.38,6.67
8.008,4.31,-2.76,3.16,6.02
8.018,3.73,-4.02,1.88,5.80
8.028,3.29,-4.96,0.82,6.01
8.038,2.94,-5.49,-0.37,6.23
8.048,2.52,-5.56,-1.64,6.32
8.059,2.09,-5.45,-2.82,6.48
8.069,1.79,-5.28,-3.80,6.75
8.079,1.51,-5.10,-4.60,7.03
8.089,1.12,-4.92,-5.15,7.21
8.099,0.71,-4.88,-5.51,7.40
8.109,0.32,-4.85,-5.71,7.50
8.119,-0.22,-4.56,-5.66,7.27
8.129,-0.96,-3.90,-5.38,6.72
8.139,-1.80,-2.88,-5.04,6.08
8.149,-2.71,-1.56,-4.57,5.54
8.159,-3.50,-0.37,-3.89,5.25
8.170,-4.11,0.56,-3.14,5.20
8.180,-4.67,1.19,-2.12,5.26
8.189,-5.00,1.54,-0.88,5.31
8.200,-5.10,2.03,0.08,5.49
8.210,-5.35,2.97,1.01,6.20
8.220,-5.64,4.28,1.86,7.31
8.230,-5.94,5.72,2.56,8.64
8.240,-6.10,6.90,3.24,9.76
8.250,-5.54,7.19,3.77,9.83
8.260,-4.28,6.66,4.21,8.97
8.270,-2.95,5.79,4.69,8.01
8.280,-1.89,5.01,4.90,7.26
8.290,-1.13,4.21,4.92,6.57
8.300,-0.52,3.18,4.88,5.85
8.310,0.00,2.09,4.75,5.19
8.321,0.55,1.08,4.37,4.53
8.331,1.00,0.05,3.68,3.82
8.341,1.18,-0.81,2.89,3.22
8.351,1.23,-1.45,1.92,2.70
8.361,1.37,-2.12,0.80,2.65
8.371,1.52,-2.74,-0.17,3.14
8.381,1.65,-3.17,-1.03,3.72
8.391,1.78,-3.66,-2.03,4.55
8.401,1.92,-4.12,-2.98,5.44
8.411,2.10,-4.48,-3.75,6.21
8.421,2.20,-4.75,-4.40,6.84
8.431,2.19,-4.90,-5.00,7.34
8.441,2.06,-4.95,-5.43,7.63
8.452,1.98,-4.98,-5.71,7.83
8.462,2.02,-4.93,-5.89,7.95
8.472,2.01,-4.87,-5.80,7.84
8.482,1.81,-4.42,-5.63,7.38
8.492,1.39,-3.36,-5.35,6.47
8.502,0.74,-1.88,-4.70,5.11
8.512,-0.03,-0.32,-3.73,3.74
8.522,-0.59,0.69,-2.77,2.92
8.532,-0.77,1.29,-1.86,2.39
8.542,-0.98,1.98,-0.90,2.39
8.552,-1.22,3.00,0.03,3.24
8.562,-1.63,4.11,0.86,4.50
8.572,-2.08,5.44,1.64,6.05
8.582,-2.22,6.82,2.29,7.53
8.593,-1.83,7.74,3.00,8.50
8.603,-0.77,8.01,3.71,8.86
8.613,0.65,7.41,4.29,8.58
8.623,1.88,6.37,4.66,8.12
8.633,2.66,5.24,5.01,7.72
8.643,3.24,3.78,5.47,7.40
8.653,3.38,2.34,5.97,7.24
8.663,3.06,1.17,5.83,6.69
8.673,2.51,0.01,4.93,5.53
8.683,1.93,-1.09,3.57,4.20
8.693,1.26,-1.91,2.01,3.05
8.703,0.62,-2.60,0.69,2.76
8.713,0.29,-3.16,-0.84,3.29
8.723,-0.02,-3.33,-2.32,4.06
8.733,-0.10,-3.11,-3.47,4.67
8.744,0.11,-2.86,-4.66,5.47
8.754,0.19,-2.68,-5.55,6.17
8.764,0.11,-2.60,-6.16,6.69
8.774,-0.24,-1.77,-6.40,6.64
8.784,-0.55,-0.19,-5.73,5.76
8.794,-1.28,-2.71,-6.58,7.23
8.804,-1.58,-4.19,-7.36,8.62
8.814,-1.79,-3.73,-6.59,7.78
8.824,-2.00,-2.42,-5.81,6.60
8.834,-2.34,-1.50,-5.10,5.81
8.844,-2.52,-1.03,-3.84,4.71
8.854,-2.57,-0.77,-2.63,3.76
8.864,-2.35,-0.68,-1.81,3.04
8.875,-2.06,-0.89,-1.17,2.53
8.884,-2.08,-0.98,-0.51,2.35
8.895,-2.22,-0.45,-0.03,2.26
8.905,-2.37,0.57,0.97,2.62
8.915,-2.82,1.63,1.96,3.80
8.925,-3.21,3.19,2.76,5.30
8.935,-3.23,4.00,3.61,6.28
8.945,-2.50,3.95,3.88,6.08
8.955,-1.61,3.37,4.24,5.65
8.965,-0.52,2.47,4.71,5.34
8.975,-0.04,1.48,4.80,5.02
8.986,0.05,1.11,5.07,5.19
8.995,-0.01,0.94,4.95,5.04
9.006,-0.22,0.60,4.66,4.71
9.016,-0.34,0.50,4.14,4.19
9.026,-0.42,0.28,3.37,3.40
9.036,-0.00,0.93,2.38,2.55
9.046,0.35,3.07,0.84,3.20
9.056,-0.92,0.21,0.97,1.36
9.066,-0.55,-1.27,0.23,1.40
9.076,0.11,-0.80,-1.16,1.41
9.086,0.67,0.03,-2.02,2.13
9.096,0.93,0.63,-2.42,2.67
9.106,1.01,0.80,-2.41,2.74
9.117,1.06,0.40,-1.45,1.83
9.126,1.09,-0.22,-0.93,1.45
9.137,0.68,-0.85,-1.91,2.20
9.146,-0.14,-1.71,-1.82,2.50
9.157,-0.98,-2.51,-0.93,2.86
9.167,-1.59,-2.98,-1.27,3.61
9.177,-1.61,-3.24,-1.59,3.95
9.187,-1.30,-2.55,-1.07,3.06
9.197,-1.15,-1.18,-1.06,1.96
9.207,-0.78,-0.70,-0.81,1.33
9.217,-0.06,-0.92,-0.45,1.03
9.227,0.62,-1.63,-0.57,1.83
9.237,1.47,-2.14,0.28,2.61
9.247,1.66,-1.67,0.35,2.38
9.257,1.48,-0.99,-1.10,2.09
9.268,1.89,-0.22,-1.34,2.33
9.278,3.09,0.63,0.27,3.16
9.288,4.00,1.27,2.47,4.87
9.298,3.35,1.38,1.67,3.99
9.308,3.57,1.65,1.92,4.38
9.318,2.33,1.47,2.56,3.76
9.328,0.44,1.07,3.06,3.27
9.338,0.76,1.31,4.09,4.36
9.348,1.08,1.27,4.65,4.94
9.358,1.19,1.03,4.31,4.59
9.368,1.17,0.92,3.89,4.16
9.378,1.18,0.78,3.77,4.03
9.388,0.65,0.76,2.93,3.10
9.398,-0.19,0.33,1.90,1.94
9.409,-0.55,0.04,0.66,0.86
9.419,-0.49,-0.10,-0.45,0.67
9.429,0.29,-0.16,-1.13,1.18
9.439,1.80,-0.35,-1.28,2.23
9.449,2.91,-1.18,-0.68,3.21
9.459,2.13,-2.40,0.51,3.25
9.469,1.33,-2.56,0.17,2.89
9.479,1.17,-2.47,-0.76,2.83
9.489,1.13,-2.46,-1.05,2.90
9.499,0.98,-2.13,-1.62,2.85
9.509,0.84,-1.90,-2.17,3.00
9.519,0.58,-2.01,-2.21,3.04
9.529,0.31,-2.00,-1.97,2.83
9.540,0.27,-1.53,-1.51,2.16
9.550,0.09,-0.79,-1.03,1.30
9.560,-0.52,-0.02,-0.59,0.79
9.570,-1.14,0.26,-0.57,1.30
9.580,-1.00,0.39,-0.69,1.28
9.590,-0.54,0.44,-0.68,0.98
9.600,-0.38,0.77,-0.67,1.09
9.610,-0.63,1.13,-0.43,1.36
9.620,-1.00,1.66,-0.21,1.95
9.630,-1.37,1.85,-0.02,2.30
9.640,-1.15,1.78,0.22,2.13
9.650,-0.78,1.66,0.49,1.90
9.660,-0.54,1.36,0.76,1.65
9.670,-0.33,1.12,0.96,1.52
9.680,-0.28,1.39,1.16,1.83
9.690,-0.66,1.71,1.54,2.40
9.701,-0.71,0.64,2.39,2.58
9.711,-0.74,0.37,2.03,2.19
9.721,-0.54,0.31,1.35,1.48
9.731,-0.05,0.33,0.60,0.69
9.741,0.28,0.15,0.08,0.33
9.751,0.12,-0.50,0.19,0.55
9.761,-0.58,-1.43,0.86,1.77
9.771,-0.05,-0.81,0.16,0.83
9.781,-0.23,-0.09,-0.99,1.02
9.791,-0.17,-0.16,-1.55,1.57
9.801,0.15,-0.41,-2.10,2.15
9.811,0.56,0.01,-2.02,2.10
9.822,-0.08,-0.81,-1.66,1.85
9.832,-0.40,-1.77,-1.90,2.63
9.842,-0.33,-2.17,-1.72,2.79
9.852,-0.04,-1.96,-1.84,2.69
9.862,0.09,-1.83,-2.12,2.80
9.872,0.01,-2.01,-2.30,3.06
9.882,0.04,-2.01,-2.40,3.13
9.892,0.20,-1.45,-2.39,2.80
9.902,-0.08,-0.52,-2.12,2.18
9.912,-0.33,0.31,-1.65,1.71
9.922,0.18,0.90,-0.80,1.22
9.932,0.94,0.56,1.07,1.53
9.942,1.69,-0.17,3.26,3.67
9.952,1.99,0.17,4.16,4.62
9.963,1.56,1.40,2.61,3.34
9.973,1.46,1.95,0.90,2.59
9.983,1.17,1.60,0.22,1.99
9.993,0.57,1.25,0.05,1.37
10.003,-0.01,1.61,0.68,1.75
10.013,-0.30,2.60,1.66,3.10
10.023,0.15,3.68,2.94,4.71
10.033,-0.17,4.28,4.60,6.28
10.043,-0.50,4.23,4.91,6.50
10.053,-0.56,3.41,3.58,4.97
10.063,-0.38,2.13,2.36,3.20
10.073,0.01,0.71,1.39,1.56
10.083,0.36,-0.68,0.43,0.89
10.094,0.56,-1.68,-0.27,1.79
10.104,0.85,-2.10,-0.40,2.30
10.114,1.08,-1.91,-0.17,2.20
10.124,0.87,-1.94,-0.25,2.14
10.134,0.51,-2.24,-0.74,2.41
10.144,0.37,-2.58,-1.42,2.97
10.154,0.22,-2.90,-2.18,3.63
10.164,-0.05,-3.16,-2.76,4.19
10.174,-0.15,-3.27,-2.88,4.36
10.184,-0.62,-3.12,-2.74,4.20
10.194,-1.02,-2.61,-2.62,3.83
10.204,-1.47,-2.00,-2.13,3.27
10.214,-1.82,-1.09,-1.46,2.57
10.224,-2.06,-0.18,-0.75,2.20
10.235,-2.17,0.35,0.06,2.20
10.245,-1.98,0.52,0.69,2.16
10.255,-1.66,0.67,1.21,2.16
10.265,-1.45,1.00,1.46,2.29
10.275,-1.40,1.45,1.38,2.45
10.285,-1.57,2.00,1.22,2.82
10.295,-1.77,2.43,1.04,3.18
10.305,-1.67,2.61,0.87,3.22
10.315,-1.31,2.55,0.84,2.99
10.325,-1.13,2.35,0.81,2.73
10.335,-1.21,2.24,0.83,2.68
10.345,-1.21,2.42,1.01,2.89
10.355,-1.19,2.68,0.98,3.09
10.366,-1.18,2.49,0.57,2.82
10.376,-0.92,1.79,-0.00,2.01
10.386,-0.37,1.04,-0.50,1.21
10.396,0.08,0.37,-0.95,1.02
10.406,0.37,-0.34,-1.21,1.31
10.416,0.55,-0.92,-1.33,1.70
10.426,0.70,-1.29,-1.56,2.14
10.436,0.83,-1.56,-1.83,2.55
10.446,0.98,-1.75,-2.12,2.92
10.456,1.05,-1.93,-2.37,3.23
10.466,1.05,-2.15,-2.50,3.46
10.476,1.05,-2.40,-2.54,3.65
10.486,1.08,-2.84,-2.53,3.95
10.496,1.10,-3.35,-2.49,4.32
10.506,1.01,-3.80,-2.53,4.68
10.516,0.87,-3.97,-2.55,4.80
10.527,0.93,-3.85,-2.31,4.58
10.537,1.11,-3.63,-1.92,4.25
10.547,1.24,-3.39,-1.62,3.96
10.557,1.30,-3.17,-1.28,3.66
10.567,1.31,-2.76,-1.22,3.29
10.577,1.09,-1.97,-1.39,2.65
10.587,1.05,-0.96,-1.27,1.91
10.597,1.16,-0.65,-0.49,1.41
10.607,1.45,-1.13,0.52,1.91
10.617,1.57,-1.47,1.07,2.41
10.627,1.19,-0.96,1.04,1.85
10.637,0.54,0.07,0.56,0.78
10.647,-0.58,0.61,-1.13,1.41
10.658,-1.68,1.04,0.33,2.00
10.668,-1.79,1.92,1.07,2.83
10.678,-1.84,2.99,1.33,3.76
10.688,-1.41,3.43,1.77,4.11
10.698,-0.70,3.33,2.59,4.27
10.708,-0.36,3.34,3.26,4.68
10.718,-0.42,3.35,3.39,4.79
10.728,0.06,2.93,2.89,4.11
10.738,0.92,2.06,2.67,3.50
10.748,1.63,1.21,2.12,2.94
