time,ax,ay,az,atotal
0.000,-0.12,0.10,0.10,0.18
0.010,-0.20,0.20,0.21,0.35
0.024,-0.25,0.17,0.29,0.42
0.034,-0.25,0.27,0.39,0.54
0.044,-0.27,0.56,0.61,0.87
0.054,-0.31,0.65,0.60,0.94
0.064,-0.40,0.44,0.34,0.69
0.074,-0.32,0.23,0.16,0.43
0.084,-0.20,0.05,0.06,0.22
0.095,-0.21,-0.07,-0.04,0.22
0.105,-0.25,-0.11,-0.06,0.28
0.115,-0.25,-0.10,-0.06,0.28
0.125,-0.25,-0.06,-0.07,0.27
0.135,-0.26,0.06,-0.10,0.29
0.145,-0.32,0.21,-0.12,0.40
0.155,-0.32,0.32,-0.14,0.47
0.165,-0.27,0.27,-0.16,0.41
0.175,-0.21,0.18,-0.11,0.30
0.185,-0.20,0.14,-0.07,0.26
0.195,-0.17,0.11,-0.08,0.22
0.205,-0.15,0.02,-0.10,0.18
0.216,-0.13,-0.05,-0.04,0.14
0.225,-0.08,-0.07,0.07,0.12
0.236,-0.04,0.04,0.15,0.16
0.246,0.02,0.12,0.16,0.21
0.256,0.05,0.10,0.12,0.16
0.266,0.12,0.14,0.01,0.18
0.276,0.26,0.20,-0.31,0.45
0.286,0.37,0.21,-0.57,0.71
0.296,0.48,0.37,-0.69,0.92
0.306,0.50,0.58,-0.69,1.03
0.316,0.41,0.72,-0.56,1.00
0.326,0.30,0.76,-0.34,0.89
0.336,0.16,0.79,-0.08,0.81
0.346,0.06,0.74,0.04,0.74
0.356,-0.00,0.67,0.10,0.68
0.366,0.01,0.57,0.15,0.59
0.377,0.03,0.45,0.15,0.47
0.387,0.09,0.47,0.29,0.56
0.397,-0.08,0.23,0.14,0.28
0.407,-0.01,0.14,0.17,0.21
0.417,0.13,0.30,-0.01,0.33
0.427,0.14,0.38,-0.05,0.41
0.437,0.12,0.40,-0.14,0.44
0.447,0.08,0.47,-0.18,0.51
0.457,-0.06,0.55,-0.14,0.57
0.467,-0.10,0.51,-0.25,0.58
0.477,-0.01,0.48,-0.35,0.59
0.487,0.11,0.50,-0.36,0.63
0.497,0.23,0.46,-0.45,0.68
0.508,0.26,0.41,-0.54,0.72
0.518,0.26,0.39,-0.56,0.73
0.528,0.28,0.47,-0.58,0.80
0.538,0.29,0.57,-0.59,0.87
0.548,0.26,0.63,-0.56,0.88
0.558,0.25,0.66,-0.51,0.87
0.568,0.28,0.66,-0.57,0.91
0.578,0.30,0.66,-0.61,0.95
0.588,0.33,0.75,-0.64,1.04
0.598,0.34,0.83,-0.74,1.16
0.608,0.30,0.73,-0.60,0.99
0.618,0.27,0.60,-0.71,0.96
0.628,0.31,0.69,-0.67,1.01
0.638,0.32,0.80,-0.47,0.98
0.649,0.31,0.90,-0.39,1.03
0.659,0.22,0.93,-0.23,0.98
0.669,0.04,1.00,0.03,1.01
0.679,-0.02,1.02,0.25,1.05
0.689,-0.05,0.68,0.52,0.85
0.699,0.04,0.57,0.56,0.80
0.709,0.33,0.77,0.22,0.87
0.719,0.53,0.87,-0.17,1.04
0.729,0.57,0.97,-0.44,1.21
0.739,0.58,1.06,-0.55,1.32
0.749,0.45,1.11,-0.49,1.29
0.759,0.14,1.09,-0.22,1.12
0.769,-0.15,1.10,0.04,1.11
0.780,-0.41,1.19,0.17,1.27
0.790,-0.59,1.30,0.19,1.44
0.800,-0.70,1.41,0.18,1.58
0.810,-0.89,1.54,0.05,1.78
0.820,-1.14,1.62,-0.06,1.98
0.830,-1.41,1.76,-0.16,2.26
0.840,-1.61,2.03,-0.29,2.61
0.850,-1.69,2.34,-0.38,2.91
0.860,-1.58,2.53,-0.47,3.02
0.870,-1.43,2.54,-0.51,2.96
0.880,-1.15,2.54,-0.53,2.84
0.890,-0.82,2.44,-0.53,2.63
0.901,-0.57,2.17,-0.37,2.28
0.910,-0.47,1.68,0.01,1.74
0.921,-0.35,1.13,0.40,1.25
0.930,-0.13,0.74,0.70,1.02
0.941,-0.02,0.45,1.03,1.13
0.951,0.03,0.20,1.34,1.35
0.961,0.06,0.01,1.47,1.47
0.971,0.15,-0.09,1.44,1.45
0.981,0.35,-0.11,1.23,1.29
0.991,0.57,-0.22,0.89,1.08
1.001,0.72,-0.46,0.55,1.02
1.011,0.82,-0.67,0.34,1.12
1.021,0.92,-0.84,0.22,1.27
1.031,1.03,-0.99,0.14,1.43
1.041,1.11,-1.11,0.12,1.57
1.052,1.14,-1.22,0.06,1.67
1.062,1.15,-1.32,-0.02,1.75
1.071,1.22,-1.32,-0.11,1.80
1.082,1.18,-1.31,-0.15,1.77
1.092,1.00,-1.38,-0.01,1.71
1.102,0.90,-1.38,0.13,1.66
1.112,0.84,-1.37,0.20,1.62
1.122,0.71,-1.44,0.36,1.64
1.132,0.53,-1.56,0.56,1.74
1.142,0.39,-1.65,0.63,1.81
1.152,0.33,-1.63,0.55,1.75
1.162,0.28,-1.57,0.44,1.66
1.172,0.18,-1.54,0.32,1.58
1.182,0.10,-1.53,0.14,1.54
1.192,0.06,-1.47,-0.06,1.47
1.202,-0.04,-1.34,-0.23,1.36
1.213,-0.09,-1.16,-0.43,1.24
1.223,-0.06,-0.96,-0.67,1.17
1.233,-0.01,-0.80,-0.75,1.09
1.243,-0.02,-0.68,-0.67,0.96
1.253,-0.08,-0.56,-0.50,0.75
1.263,-0.20,-0.44,-0.28,0.56
1.273,-0.39,-0.32,-0.01,0.50
1.283,-0.58,-0.18,0.12,0.62
1.293,-0.68,-0.05,0.09,0.68
1.303,-0.63,0.12,-0.02,0.64
1.313,-0.48,0.30,-0.11,0.58
1.323,-0.36,0.40,-0.13,0.55
1.333,-0.29,0.38,-0.06,0.48
1.344,-0.24,0.32,0.07,0.40
1.354,-0.22,0.25,0.22,0.40
1.364,-0.21,0.16,0.40,0.48
1.374,-0.17,0.07,0.50,0.54
1.384,-0.10,-0.00,0.46,0.47
1.394,-0.04,-0.07,0.31,0.32
1.404,0.01,-0.06,0.04,0.07
1.414,0.10,0.03,-0.21,0.23
1.424,0.21,0.14,-0.44,0.51
1.434,0.33,0.17,-0.61,0.71
1.444,0.34,0.13,-0.76,0.84
1.454,0.29,0.09,-0.83,0.88
1.464,0.20,0.08,-0.88,0.91
1.475,0.01,0.09,-0.82,0.83
1.485,-0.09,0.14,-0.73,0.75
1.495,-0.11,0.24,-0.65,0.70
1.505,-0.10,0.31,-0.56,0.65
1.515,-0.12,0.36,-0.53,0.65
1.525,-0.09,0.43,-0.57,0.72
1.535,-0.01,0.50,-0.67,0.83
1.545,0.01,0.52,-0.78,0.94
1.555,0.04,0.50,-0.91,1.04
1.565,0.05,0.49,-0.96,1.07
1.575,-0.01,0.52,-0.92,1.06
1.585,-0.12,0.61,-0.90,1.09
1.595,-0.19,0.76,-0.81,1.13
1.606,-0.21,0.92,-0.73,1.19
1.616,-0.22,0.99,-0.73,1.24
1.626,-0.21,0.97,-0.72,1.23
1.636,-0.23,0.99,-0.68,1.22
1.646,-0.26,1.08,-0.69,1.31
1.656,-0.30,1.19,-0.67,1.40
1.666,-0.36,1.28,-0.60,1.46
1.676,-0.44,1.22,-0.66,1.45
1.686,-0.44,1.06,-0.78,1.39
1.696,-0.41,1.06,-0.84,1.41
1.706,-0.49,1.11,-0.70,1.40
1.716,-0.57,1.14,-0.42,1.35
1.726,-0.67,1.18,-0.09,1.36
1.737,-0.73,1.14,0.21,1.38
1.747,-0.75,0.98,0.32,1.28
1.757,-0.60,0.77,0.22,1.00
1.767,-0.37,0.72,0.24,0.84
1.777,-0.18,0.90,0.33,0.97
1.787,-0.02,1.10,0.35,1.16
1.797,0.07,1.23,0.39,1.29
1.807,0.15,1.28,0.56,1.41
1.817,0.18,1.31,0.95,1.63
1.827,0.13,1.24,1.46,1.92
1.837,0.10,1.01,1.87,2.13
1.847,0.04,0.63,2.16,2.24
1.857,-0.13,0.06,2.38,2.39
1.868,-0.25,-0.51,2.40,2.46
1.878,-0.24,-0.84,2.10,2.28
1.887,-0.16,-1.02,1.58,1.89
1.898,0.01,-1.11,0.87,1.41
1.908,0.16,-1.16,0.08,1.17
1.918,0.23,-1.14,-0.51,1.27
1.928,0.14,-1.08,-0.73,1.31
1.938,0.15,-0.95,-0.65,1.16
1.948,0.26,-0.89,-0.39,1.00
1.958,0.30,-0.94,-0.11,0.99
1.968,0.26,-1.06,0.06,1.10
1.978,0.14,-1.20,0.16,1.21
1.988,-0.06,-1.27,0.30,1.31
1.998,-0.22,-1.30,0.33,1.36
2.008,-0.25,-1.22,0.12,1.25
2.018,-0.08,-1.01,-0.34,1.07
2.029,0.08,-0.82,-0.77,1.13
2.039,0.20,-0.67,-0.94,1.17
2.049,0.24,-0.58,-0.88,1.08
2.059,0.34,-0.55,-0.73,0.97
2.069,0.32,-0.62,-0.46,0.84
2.079,0.16,-0.72,-0.01,0.74
2.089,-0.08,-0.76,0.44,0.89
2.099,-0.19,-0.71,0.72,1.03
2.109,-0.18,-0.64,0.87,1.10
2.119,-0.23,-0.63,0.92,1.14
2.129,-0.23,-0.67,0.86,1.12
2.139,-0.24,-0.74,0.66,1.02
2.150,-0.19,-0.79,0.24,0.84
2.160,-0.17,-0.74,-0.23,0.79
2.170,-0.15,-0.61,-0.66,0.92
2.180,-0.12,-0.43,-0.95,1.05
2.190,-0.10,-0.20,-1.05,1.07
2.200,-0.05,-0.08,-1.06,1.06
2.210,0.03,-0.06,-1.00,1.00
2.220,0.04,-0.07,-0.87,0.87
2.230,0.09,-0.01,-0.78,0.78
2.240,0.16,0.02,-0.74,0.76
2.250,0.19,0.06,-0.73,0.76
2.260,0.18,0.13,-0.72,0.75
2.270,0.18,0.25,-0.70,0.77
2.280,0.26,0.33,-0.65,0.78
2.290,0.24,0.30,-0.52,0.65
2.300,0.19,0.23,-0.41,0.50
2.311,0.12,0.15,-0.39,0.43
2.321,0.07,0.15,-0.28,0.32
2.331,-0.03,0.24,-0.18,0.31
2.341,-0.08,0.44,-0.18,0.48
2.351,-0.03,0.68,-0.21,0.71
2.361,0.05,0.88,-0.20,0.90
2.371,0.12,0.93,-0.18,0.96
2.381,0.15,0.75,-0.15,0.78
2.391,0.18,0.52,-0.13,0.57
2.401,0.18,0.42,-0.08,0.46
2.411,0.14,0.44,0.02,0.46
2.422,0.15,0.52,0.19,0.57
2.431,0.17,0.58,0.34,0.70
2.442,0.16,0.57,0.43,0.73
2.452,0.17,0.57,0.42,0.73
2.462,0.20,0.58,0.31,0.69
2.472,0.22,0.61,0.17,0.67
2.482,0.23,0.71,0.09,0.75
2.492,0.20,0.85,0.06,0.87
2.502,0.25,1.04,0.05,1.07
2.512,0.35,1.28,0.08,1.32
2.522,0.47,1.42,0.06,1.50
2.532,0.52,1.40,0.04,1.49
2.542,0.46,1.29,0.06,1.38
2.552,0.32,1.20,0.13,1.25
2.563,0.14,1.14,0.33,1.20
2.573,0.06,1.11,0.69,1.30
2.582,0.02,0.96,1.09,1.45
2.593,-0.01,0.62,1.49,1.61
2.603,-0.07,0.21,1.84,1.86
2.613,-0.15,-0.14,2.07,2.08
2.623,-0.20,-0.44,1.97,2.02
2.633,-0.25,-0.68,1.60,1.76
2.643,-0.26,-0.82,1.06,1.36
2.653,-0.15,-0.82,0.49,0.97
2.663,-0.11,-0.79,0.09,0.80
2.673,-0.16,-0.83,-0.12,0.85
2.683,-0.19,-0.86,-0.32,0.94
2.693,-0.19,-0.83,-0.50,0.99
2.703,-0.15,-0.75,-0.58,0.96
2.714,-0.11,-0.65,-0.62,0.91
2.724,-0.11,-0.68,-0.63,0.93
2.734,-0.14,-0.81,-0.66,1.05
2.744,-0.13,-0.92,-0.70,1.16
2.754,-0.21,-0.97,-0.66,1.20
2.764,-0.39,-0.98,-0.63,1.23
2.774,-0.48,-0.84,-0.68,1.18
2.784,-0.47,-0.68,-0.78,1.14
2.794,-0.47,-0.62,-0.84,1.14
2.804,-0.49,-0.61,-0.77,1.10
2.815,-0.49,-0.57,-0.63,0.98
2.824,-0.45,-0.56,-0.50,0.88
2.835,-0.44,-0.65,-0.28,0.83
2.844,-0.50,-0.77,0.01,0.92
2.854,-0.55,-0.85,0.31,1.05
2.865,-0.54,-0.83,0.57,1.14
2.875,-0.52,-0.71,0.75,1.16
2.885,-0.48,-0.61,0.76,1.09
2.895,-0.46,-0.60,0.65,1.00
2.905,-0.40,-0.57,0.41,0.81
2.915,-0.31,-0.47,0.09,0.57
2.925,-0.17,-0.39,-0.17,0.46
2.935,-0.11,-0.37,-0.35,0.52
2.945,-0.03,-0.34,-0.51,0.62
2.955,0.08,-0.27,-0.63,0.69
2.966,0.10,-0.16,-0.61,0.64
2.975,0.02,-0.02,-0.53,0.53
2.986,-0.02,0.08,-0.46,0.46
2.996,-0.02,0.19,-0.38,0.42
3.006,-0.03,0.29,-0.38,0.48
3.016,-0.02,0.40,-0.46,0.61
3.026,-0.01,0.50,-0.58,0.77
3.036,-0.01,0.55,-0.67,0.87
3.046,-0.07,0.55,-0.66,0.86
3.056,-0.00,0.55,-0.65,0.85
3.066,0.10,0.53,-0.67,0.86
3.076,0.12,0.50,-0.61,0.80
3.086,0.05,0.51,-0.46,0.68
3.096,-0.02,0.55,-0.36,0.66
3.106,-0.07,0.66,-0.29,0.73
3.116,-0.06,0.79,-0.17,0.81
3.127,-0.08,0.87,-0.00,0.87
3.137,-0.12,0.88,0.07,0.89
3.147,-0.11,0.87,0.07,0.88
3.157,-0.13,0.86,0.06,0.87
3.167,-0.12,0.89,0.08,0.90
3.177,-0.13,0.95,0.08,0.96
3.187,-0.12,1.02,0.16,1.04
3.197,-0.14,0.96,0.23,0.99
3.207,-0.11,0.82,0.37,0.91
3.217,-0.13,0.66,0.62,0.91
3.227,-0.20,0.56,0.85,1.04
3.237,-0.12,0.60,0.90,1.09
3.247,0.08,0.80,0.63,1.02
3.258,0.26,1.00,0.19,1.05
3.268,0.26,1.03,-0.05,1.06
3.278,0.25,1.02,-0.04,1.05
3.288,0.28,1.04,0.13,1.09
3.298,0.25,1.14,0.51,1.28
3.308,0.18,1.15,1.03,1.55
3.318,0.01,0.88,1.56,1.79
3.328,-0.21,0.34,2.00,2.04
3.338,-0.40,-0.24,2.20,2.25
3.348,-0.46,-0.66,2.05,2.20
3.358,-0.37,-0.91,1.51,1.80
3.368,-0.20,-1.07,0.76,1.33
3.378,-0.06,-1.16,0.03,1.16
3.389,0.06,-1.17,-0.50,1.27
3.399,0.19,-1.10,-0.86,1.41
3.409,0.29,-1.00,-1.03,1.47
3.419,0.41,-0.87,-1.04,1.42
3.429,0.47,-0.77,-0.89,1.27
3.439,0.47,-0.75,-0.64,1.09
3.449,0.46,-0.74,-0.38,0.95
3.459,0.40,-0.74,-0.20,0.86
3.469,0.36,-0.76,-0.15,0.86
3.479,0.41,-0.80,-0.37,0.97
3.489,0.48,-0.82,-0.68,1.17
3.499,0.46,-0.85,-0.89,1.32
3.509,0.35,-0.90,-0.91,1.33
3.519,0.23,-0.91,-0.74,1.20
3.530,0.13,-0.82,-0.31,0.88
3.540,0.03,-0.72,0.21,0.75
3.550,-0.04,-0.73,0.60,0.95
3.560,-0.10,-0.86,0.81,1.18
3.570,-0.16,-1.02,0.77,1.29
3.580,-0.21,-1.13,0.56,1.28
3.590,-0.20,-1.12,0.19,1.15
3.600,-0.10,-1.00,-0.13,1.02
3.610,-0.03,-0.84,-0.35,0.91
3.620,0.08,-0.72,-0.51,0.89
3.630,0.21,-0.65,-0.55,0.88
3.640,0.24,-0.59,-0.50,0.81
3.650,0.26,-0.49,-0.44,0.71
3.660,0.31,-0.37,-0.44,0.65
3.670,0.31,-0.22,-0.49,0.62
3.681,0.25,-0.01,-0.42,0.49
3.691,0.20,0.15,-0.33,0.41
3.701,0.22,0.20,-0.28,0.40
3.711,0.20,0.22,-0.25,0.39
3.721,0.12,0.21,-0.21,0.32
3.731,0.05,0.26,-0.15,0.30
3.741,0.04,0.37,-0.11,0.38
3.751,0.02,0.47,-0.12,0.49
3.761,-0.01,0.52,-0.21,0.56
3.771,-0.09,0.57,-0.36,0.68
3.781,-0.12,0.69,-0.48,0.85
3.791,-0.09,0.77,-0.46,0.90
3.801,-0.10,0.71,-0.34,0.79
3.812,-0.13,0.62,-0.25,0.68
3.822,-0.12,0.54,-0.15,0.57
3.832,-0.11,0.44,-0.10,0.47
3.842,-0.10,0.41,-0.04,0.42
3.852,-0.08,0.40,-0.00,0.40
3.862,-0.08,0.38,-0.01,0.39
3.872,-0.05,0.42,0.02,0.42
3.882,-0.03,0.46,0.08,0.47
3.892,-0.00,0.48,0.22,0.53
3.902,0.07,0.52,0.29,0.60
3.912,0.16,0.54,0.35,0.66
3.922,0.27,0.64,0.36,0.78
3.932,0.45,0.77,0.34,0.96
3.942,0.56,0.75,0.32,0.99
3.953,0.56,0.63,0.44,0.95
3.963,0.51,0.52,0.65,0.97
3.973,0.43,0.47,0.82,1.04
3.983,0.34,0.49,0.97,1.14
3.993,0.19,0.40,1.09,1.18
4.003,0.00,0.25,1.17,1.20
4.013,-0.15,0.12,1.14,1.15
4.023,-0.22,0.06,0.98,1.01
4.033,-0.21,0.03,0.71,0.74
4.043,-0.13,0.03,0.48,0.50
4.053,-0.12,-0.04,0.39,0.41
4.064,-0.14,-0.18,0.48,0.54
4.073,-0.20,-0.31,0.62,0.73
4.083,-0.19,-0.41,0.69,0.82
4.094,-0.21,-0.52,0.62,0.84
4.104,-0.22,-0.65,0.43,0.81
4.114,-0.19,-0.71,0.22,0.77
4.124,-0.18,-0.67,0.04,0.69
4.134,-0.23,-0.69,-0.10,0.73
4.144,-0.32,-0.76,-0.10,0.83
4.154,-0.42,-0.80,0.06,0.90
4.164,-0.53,-0.85,0.17,1.02
4.174,-0.46,-0.81,0.14,0.94
4.184,-0.45,-0.76,0.06,0.88
4.194,-0.52,-0.81,0.04,0.96
4.205,-0.58,-0.90,-0.01,1.07
4.214,-0.50,-0.91,-0.20,1.05
4.225,-0.32,-0.84,-0.46,1.01
4.235,-0.23,-0.77,-0.65,1.04
4.245,-0.17,-0.70,-0.71,1.02
4.255,-0.11,-0.59,-0.66,0.90
4.265,-0.08,-0.52,-0.54,0.76
4.275,-0.14,-0.54,-0.34,0.65
4.285,-0.22,-0.59,-0.06,0.63
4.295,-0.32,-0.60,0.12,0.69
4.305,-0.38,-0.64,0.17,0.77
4.315,-0.42,-0.68,0.14,0.81
4.325,-0.46,-0.68,0.09,0.83
4.335,-0.44,-0.63,-0.02,0.77
4.346,-0.45,-0.53,-0.13,0.71
4.355,-0.45,-0.40,-0.22,0.64
4.366,-0.44,-0.25,-0.30,0.59
4.376,-0.41,-0.09,-0.39,0.58
4.386,-0.39,0.07,-0.49,0.63
4.396,-0.38,0.21,-0.60,0.75
4.406,-0.34,0.35,-0.68,0.84
4.416,-0.33,0.48,-0.72,0.93
4.426,-0.31,0.55,-0.78,1.00
4.436,-0.24,0.60,-0.85,1.07
4.446,-0.20,0.63,-0.89,1.10
4.456,-0.21,0.68,-0.87,1.13
4.466,-0.19,0.72,-0.82,1.11
4.476,-0.22,0.71,-0.73,1.04
4.486,-0.22,0.70,-0.64,0.97
4.497,-0.16,0.70,-0.53,0.89
4.507,-0.12,0.75,-0.44,0.88
4.517,-0.06,0.86,-0.41,0.96
4.527,-0.01,1.02,-0.43,1.11
4.537,0.00,1.19,-0.41,1.26
4.547,0.02,1.33,-0.31,1.37
4.557,0.00,1.40,-0.17,1.41
4.567,-0.03,1.38,-0.03,1.39
4.577,-0.04,1.33,0.06,1.33
4.587,-0.02,1.28,0.15,1.29
4.597,-0.06,1.20,0.27,1.24
4.607,-0.09,1.15,0.37,1.21
4.617,-0.03,1.11,0.45,1.20
4.628,-0.03,1.09,0.57,1.23
4.637,-0.04,1.01,0.69,1.22
4.648,-0.03,0.83,0.79,1.15
4.658,-0.02,0.67,0.91,1.13
4.668,-0.04,0.57,0.99,1.14
4.678,-0.00,0.52,0.99,1.12
4.688,0.16,0.59,0.86,1.05
4.698,0.37,0.66,0.51,0.91
4.708,0.40,0.60,0.15,0.74
4.718,0.39,0.49,0.00,0.63
4.728,0.37,0.54,0.07,0.66
4.738,0.36,0.69,0.30,0.83
4.748,0.25,0.75,0.70,1.05
4.758,0.03,0.64,1.25,1.41
4.768,-0.26,0.36,1.77,1.82
4.779,-0.46,0.08,2.09,2.14
4.789,-0.59,-0.22,2.08,2.17
4.799,-0.59,-0.59,1.73,1.92
4.809,-0.49,-0.96,1.14,1.57
4.819,-0.31,-1.22,0.41,1.33
4.829,-0.12,-1.33,-0.26,1.36
4.839,0.02,-1.35,-0.64,1.50
4.849,0.08,-1.29,-0.78,1.51
4.859,0.14,-1.18,-0.87,1.47
4.869,0.22,-1.04,-0.84,1.35
4.879,0.19,-0.86,-0.69,1.12
4.889,0.08,-0.78,-0.52,0.94
4.899,0.07,-0.73,-0.37,0.82
4.909,0.05,-0.72,-0.25,0.77
4.920,0.03,-0.76,-0.19,0.79
4.930,0.06,-0.79,-0.22,0.82
4.940,0.07,-0.81,-0.26,0.86
4.950,0.13,-0.86,-0.35,0.94
4.960,0.16,-0.89,-0.32,0.96
4.970,0.09,-0.91,-0.07,0.92
4.980,0.00,-0.92,0.33,0.98
4.990,-0.06,-0.89,0.79,1.19
5.000,-0.10,-0.90,1.23,1.53
5.010,-0.16,-0.98,1.55,1.84
5.020,-0.21,-1.08,1.62,1.96
5.030,-0.21,-1.19,1.36,1.81
5.040,-0.20,-1.23,0.90,1.54
5.050,-0.13,-1.17,0.29,1.21
5.061,-0.04,-1.02,-0.31,1.06
5.071,-0.00,-0.85,-0.74,1.13
5.081,0.02,-0.72,-0.97,1.21
5.091,0.07,-0.58,-1.00,1.16
5.101,0.12,-0.44,-0.91,1.02
5.111,0.15,-0.28,-0.71,0.78
5.121,0.13,-0.14,-0.42,0.46
5.131,0.02,-0.10,-0.19,0.21
5.141,-0.05,-0.07,-0.06,0.10
5.151,-0.02,0.02,-0.13,0.13
5.161,0.06,0.16,-0.36,0.40
5.171,0.16,0.20,-0.58,0.63
5.181,0.19,0.16,-0.68,0.72
5.192,0.21,0.09,-0.63,0.66
5.202,0.24,0.01,-0.47,0.53
5.212,0.25,0.00,-0.21,0.33
5.222,0.21,0.06,0.08,0.23
5.232,0.16,0.11,0.34,0.39
5.242,0.12,0.15,0.46,0.50
5.252,0.11,0.23,0.37,0.45
5.262,0.07,0.33,0.14,0.36
5.272,0.06,0.42,-0.16,0.45
5.282,0.09,0.50,-0.46,0.69
5.292,0.10,0.58,-0.66,0.88
5.302,0.08,0.61,-0.77,0.98
5.312,0.06,0.63,-0.82,1.04
5.323,0.10,0.69,-0.80,1.06
5.333,0.11,0.74,-0.70,1.02
5.343,0.04,0.75,-0.56,0.94
5.353,0.04,0.76,-0.46,0.89
5.363,0.06,0.79,-0.42,0.89
5.373,0.02,0.79,-0.33,0.86
5.383,0.01,0.78,-0.28,0.83
5.393,0.06,0.73,-0.23,0.77
5.403,0.06,0.63,-0.15,0.65
5.413,0.11,0.64,-0.10,0.66
5.423,0.26,0.79,-0.11,0.83
5.433,0.38,0.92,-0.16,1.01
5.443,0.36,0.94,-0.12,1.01
5.454,0.28,0.79,0.07,0.84
5.464,0.10,0.60,0.47,0.76
5.474,0.01,0.44,0.91,1.01
5.484,-0.01,0.30,1.33,1.36
5.494,-0.18,0.08,1.69,1.71
5.504,-0.46,-0.22,1.99,2.06
5.514,-0.65,-0.39,2.01,2.14
5.524,-0.69,-0.37,1.65,1.82
5.534,-0.60,-0.31,1.03,1.23
5.544,-0.49,-0.33,0.36,0.69
5.554,-0.41,-0.37,-0.20,0.59
5.564,-0.26,-0.35,-0.65,0.78
5.574,-0.10,-0.35,-0.91,0.98
5.584,0.04,-0.36,-0.91,0.98
5.594,0.16,-0.37,-0.70,0.81
5.605,0.18,-0.47,-0.40,0.64
5.615,0.14,-0.72,-0.17,0.75
5.625,0.15,-0.93,-0.05,0.94
5.635,0.13,-1.02,0.03,1.03
5.645,0.05,-1.08,0.11,1.09
5.655,-0.05,-1.13,0.14,1.14
5.665,-0.05,-1.10,0.10,1.10
5.675,-0.03,-1.01,0.04,1.01
5.685,-0.04,-0.93,0.01,0.94
5.695,-0.08,-0.86,0.02,0.87
5.705,-0.07,-0.75,-0.10,0.76
5.715,0.02,-0.65,-0.23,0.69
5.726,0.06,-0.58,-0.27,0.64
5.736,0.05,-0.51,-0.24,0.57
5.746,0.10,-0.43,-0.18,0.48
5.756,0.12,-0.38,-0.07,0.41
5.766,-0.00,-0.40,0.12,0.42
5.776,-0.13,-0.44,0.32,0.56
5.786,-0.20,-0.37,0.43,0.60
5.796,-0.24,-0.31,0.44,0.59
5.806,-0.33,-0.34,0.44,0.64
5.816,-0.40,-0.38,0.44,0.71
5.826,-0.42,-0.35,0.41,0.68
5.836,-0.41,-0.29,0.33,0.60
5.846,-0.39,-0.25,0.24,0.52
5.856,-0.34,-0.23,0.15,0.44
5.867,-0.27,-0.18,0.04,0.33
5.877,-0.24,-0.16,-0.07,0.30
5.887,-0.21,-0.14,-0.17,0.31
5.897,-0.20,-0.06,-0.29,0.36
5.907,-0.16,0.06,-0.44,0.47
5.917,-0.13,0.20,-0.64,0.68
5.927,-0.12,0.30,-0.80,0.87
5.937,-0.12,0.40,-0.88,0.97
5.947,-0.09,0.46,-0.92,1.04
5.957,-0.05,0.49,-0.94,1.06
5.967,-0.03,0.50,-0.87,1.00
5.977,-0.03,0.47,-0.79,0.92
5.987,0.00,0.46,-0.73,0.86
5.997,0.04,0.48,-0.66,0.82
6.008,0.07,0.50,-0.62,0.80
6.018,0.15,0.54,-0.63,0.84
6.028,0.20,0.55,-0.65,0.88
6.038,0.19,0.54,-0.57,0.81
6.048,0.11,0.54,-0.39,0.67
6.058,0.08,0.57,-0.21,0.61
6.068,0.05,0.60,-0.05,0.60
6.078,-0.06,0.54,0.07,0.55
6.088,-0.03,0.50,0.05,0.50
6.098,0.14,0.68,-0.02,0.70
6.108,0.13,0.89,-0.09,0.90
6.119,0.06,1.08,-0.00,1.08
6.128,-0.06,1.18,0.03,1.18
6.139,-0.07,1.26,0.10,1.26
6.149,-0.08,1.27,0.14,1.28
6.159,-0.15,1.22,0.17,1.24
6.169,-0.23,1.14,0.19,1.18
6.179,-0.30,1.10,0.22,1.16
6.189,-0.38,1.09,0.25,1.18
6.199,-0.42,1.01,0.34,1.14
6.209,-0.41,0.88,0.43,1.07
6.219,-0.37,0.78,0.46,0.98
6.229,-0.23,0.79,0.36,0.90
6.239,-0.13,0.81,0.19,0.84
6.249,-0.07,0.78,0.05,0.78
6.259,-0.03,0.74,0.07,0.75
6.269,-0.01,0.74,0.29,0.80
6.280,-0.07,0.70,0.65,0.96
6.290,-0.19,0.60,1.04,1.21
6.300,-0.38,0.43,1.37,1.49
6.310,-0.61,0.25,1.51,1.65
6.320,-0.75,0.11,1.42,1.61
6.330,-0.81,-0.05,1.15,1.41
6.340,-0.76,-0.21,0.71,1.06
6.350,-0.64,-0.37,0.31,0.80
6.360,-0.56,-0.56,0.01,0.80
6.370,-0.55,-0.78,-0.16,0.97
6.380,-0.48,-0.94,-0.23,1.08
6.390,-0.43,-0.94,-0.15,1.04
6.400,-0.42,-0.86,0.02,0.96
6.410,-0.45,-0.82,0.17,0.95
6.420,-0.52,-0.82,0.30,1.01
6.431,-0.53,-0.82,0.43,1.06
6.441,-0.57,-0.83,0.50,1.13
6.451,-0.62,-0.96,0.53,1.26
6.461,-0.65,-1.15,0.50,1.41
6.471,-0.70,-1.35,0.43,1.58
6.481,-0.66,-1.48,0.26,1.64
6.491,-0.53,-1.48,-0.05,1.57
6.501,-0.47,-1.48,-0.32,1.58
6.511,-0.51,-1.51,-0.46,1.66
6.521,-0.51,-1.51,-0.48,1.67
6.532,-0.46,-1.43,-0.40,1.56
6.541,-0.45,-1.35,-0.20,1.44
6.551,-0.51,-1.29,0.06,1.39
6.562,-0.54,-1.22,0.35,1.38
6.572,-0.58,-1.15,0.68,1.46
6.582,-0.69,-1.14,1.04,1.69
6.592,-0.83,-1.15,1.37,1.97
6.602,-0.94,-1.16,1.47,2.09
6.612,-0.97,-1.20,1.36,2.06
6.622,-0.97,-1.26,1.11,1.94
6.632,-0.89,-1.30,0.79,1.76
6.642,-0.84,-1.31,0.49,1.63
6.652,-0.82,-1.25,0.25,1.51
6.662,-0.79,-1.17,0.05,1.42
6.672,-0.79,-1.08,-0.10,1.34
6.683,-0.82,-0.97,-0.21,1.29
6.692,-0.85,-0.79,-0.22,1.17
6.702,-0.87,-0.63,-0.18,1.09
6.713,-0.92,-0.54,-0.14,1.08
6.723,-1.00,-0.49,-0.10,1.12
6.733,-1.07,-0.44,-0.11,1.16
6.743,-1.05,-0.37,-0.21,1.13
6.753,-1.02,-0.32,-0.34,1.12
6.763,-1.00,-0.29,-0.43,1.13
6.773,-0.98,-0.26,-0.48,1.12
6.783,-0.88,-0.24,-0.53,1.05
6.793,-0.69,-0.15,-0.57,0.91
6.803,-0.53,-0.03,-0.56,0.77
6.813,-0.41,0.00,-0.42,0.59
6.824,-0.35,-0.02,-0.21,0.41
6.834,-0.36,-0.07,0.08,0.37
6.844,-0.33,-0.08,0.35,0.49
6.854,-0.24,-0.04,0.50,0.55
6.864,-0.10,0.00,0.52,0.53
6.874,0.02,0.01,0.52,0.52
6.884,0.10,-0.04,0.50,0.51
6.894,0.10,-0.11,0.44,0.47
6.904,0.11,-0.15,0.45,0.48
6.914,0.07,-0.21,0.44,0.49
6.924,0.10,-0.23,0.38,0.45
6.934,0.12,-0.22,0.32,0.41
6.944,0.03,-0.16,0.37,0.40
6.954,-0.07,-0.09,0.43,0.44
6.965,-0.13,-0.00,0.48,0.50
6.975,-0.21,0.02,0.49,0.54
6.985,-0.28,0.05,0.48,0.56
6.995,-0.34,0.05,0.44,0.56
7.005,-0.43,-0.02,0.41,0.60
7.015,-0.57,-0.14,0.43,0.73
7.025,-0.61,-0.19,0.44,0.78
7.035,-0.51,-0.10,0.40,0.66
7.045,-0.35,-0.00,0.29,0.46
7.055,-0.24,-0.07,0.28,0.38
7.065,-0.23,-0.23,0.42,0.53
7.075,-0.29,-0.47,0.68,0.88
7.085,-0.42,-0.74,1.00,1.31
7.095,-0.48,-0.89,1.27,1.62
7.106,-0.46,-0.92,1.42,1.75
7.116,-0.54,-1.04,1.46,1.87
7.126,-0.57,-1.24,1.27,1.87
7.136,-0.54,-1.40,0.80,1.70
7.146,-0.60,-1.52,0.38,1.68
7.156,-0.62,-1.49,-0.05,1.61
7.166,-0.60,-1.35,-0.41,1.53
7.176,-0.47,-1.16,-0.60,1.39
7.186,-0.39,-1.04,-0.59,1.25
7.196,-0.50,-1.06,-0.37,1.23
7.206,-0.58,-1.07,-0.00,1.21
7.216,-0.61,-1.05,0.37,1.27
7.226,-0.74,-1.13,0.74,1.54
7.237,-0.81,-1.32,1.03,1.86
7.247,-0.89,-1.57,1.14,2.13
7.257,-0.96,-1.82,1.14,2.36
7.267,-0.90,-1.91,1.00,2.34
7.277,-0.81,-1.81,0.72,2.11
7.287,-0.74,-1.63,0.42,1.85
7.297,-0.71,-1.46,0.17,1.63
7.307,-0.62,-1.29,0.07,1.43
7.317,-0.55,-1.17,0.05,1.30
7.327,-0.54,-1.11,0.11,1.24
7.337,-0.48,-1.04,0.18,1.16
7.347,-0.45,-1.04,0.26,1.17
7.357,-0.49,-1.11,0.35,1.26
7.367,-0.55,-1.20,0.41,1.38
7.377,-0.58,-1.24,0.42,1.43
7.387,-0.58,-1.21,0.41,1.40
7.398,-0.57,-1.16,0.40,1.36
7.408,-0.52,-1.13,0.39,1.31
7.418,-0.45,-1.10,0.38,1.25
7.428,-0.39,-1.08,0.40,1.21
7.438,-0.34,-1.06,0.40,1.19
7.448,-0.30,-1.06,0.32,1.14
7.458,-0.22,-0.99,0.20,1.03
7.468,-0.15,-0.88,0.12,0.90
7.478,-0.09,-0.75,0.05,0.76
7.488,-0.03,-0.67,-0.05,0.68
7.498,0.05,-0.64,-0.15,0.66
7.508,0.14,-0.61,-0.20,0.66
7.519,0.22,-0.61,-0.18,0.67
7.529,0.22,-0.64,-0.07,0.68
7.539,0.17,-0.72,0.07,0.75
7.549,0.12,-0.79,0.27,0.85
7.559,0.03,-0.84,0.48,0.97
7.569,-0.02,-0.81,0.59,1.00
7.579,-0.04,-0.77,0.57,0.96
7.589,-0.06,-0.71,0.48,0.86
7.599,-0.10,-0.65,0.34,0.74
7.609,-0.11,-0.60,0.21,0.65
7.619,-0.13,-0.59,0.10,0.61
7.629,-0.16,-0.61,0.07,0.64
7.639,-0.18,-0.64,0.03,0.67
7.650,-0.14,-0.64,0.02,0.66
7.660,-0.19,-0.63,0.10,0.66
7.670,-0.26,-0.62,0.24,0.71
7.680,-0.31,-0.62,0.36,0.78
7.690,-0.34,-0.66,0.39,0.84
7.700,-0.32,-0.65,0.30,0.78
7.710,-0.24,-0.55,0.08,0.61
7.720,-0.17,-0.48,-0.21,0.55
7.730,-0.12,-0.37,-0.41,0.57
7.740,-0.09,-0.25,-0.48,0.55
7.750,-0.08,-0.13,-0.52,0.54
7.760,-0.04,-0.03,-0.55,0.55
7.770,0.03,0.09,-0.58,0.59
7.780,0.07,0.23,-0.59,0.64
7.791,0.07,0.38,-0.55,0.67
7.800,0.03,0.55,-0.41,0.69
7.811,0.02,0.72,-0.24,0.76
7.821,0.01,0.83,-0.13,0.84
7.831,-0.02,0.81,-0.03,0.81
7.841,-0.04,0.75,0.06,0.75
7.851,-0.06,0.70,0.12,0.71
7.861,-0.07,0.68,0.15,0.70
7.871,-0.05,0.70,0.13,0.71
7.881,-0.02,0.72,0.08,0.72
7.891,0.01,0.74,0.06,0.75
7.901,-0.02,0.73,-0.04,0.74
7.911,-0.04,0.79,-0.14,0.81
7.922,-0.03,0.92,-0.17,0.93
7.932,-0.06,1.04,-0.16,1.05
7.942,-0.07,1.15,-0.10,1.15
7.952,-0.05,1.21,-0.09,1.21
7.962,-0.05,1.19,-0.10,1.20
7.972,-0.04,1.14,-0.16,1.15
7.982,-0.01,1.13,-0.24,1.15
7.992,-0.01,1.11,-0.35,1.17
8.002,0.02,1.09,-0.41,1.17
8.012,0.01,1.11,-0.42,1.18
8.022,0.01,1.14,-0.40,1.20
8.032,-0.02,1.16,-0.33,1.21
8.042,-0.07,1.17,-0.30,1.21
8.052,-0.09,1.19,-0.33,1.24
8.062,-0.11,1.20,-0.41,1.27
8.073,-0.17,1.20,-0.46,1.30
8.083,-0.28,1.17,-0.50,1.30
8.093,-0.30,1.19,-0.51,1.33
8.103,-0.33,1.27,-0.53,1.41
8.113,-0.40,1.28,-0.56,1.45
8.123,-0.47,1.23,-0.57,1.44
8.133,-0.47,1.20,-0.57,1.41
8.143,-0.46,1.16,-0.59,1.38
8.153,-0.46,1.07,-0.63,1.32
8.163,-0.50,0.99,-0.68,1.30
8.173,-0.51,1.01,-0.68,1.32
8.183,-0.50,1.09,-0.68,1.38
8.193,-0.45,1.19,-0.70,1.45
8.203,-0.37,1.21,-0.65,1.42
8.214,-0.32,1.12,-0.47,1.26
8.224,-0.23,1.00,-0.24,1.05
8.234,-0.14,0.94,0.12,0.96
8.244,-0.09,0.92,0.59,1.09
8.254,-0.13,0.85,0.88,1.23
8.264,-0.09,0.79,1.13,1.38
8.274,-0.06,0.67,1.32,1.48
8.284,-0.08,0.47,1.47,1.54
8.294,-0.13,0.17,1.53,1.55
8.304,-0.08,-0.15,1.34,1.36
8.315,0.06,-0.39,1.00,1.07
8.324,0.21,-0.53,0.66,0.87
8.335,0.37,-0.56,0.32,0.74
8.344,0.54,-0.53,0.06,0.76
8.355,0.64,-0.47,-0.06,0.80
8.365,0.65,-0.34,-0.06,0.74
8.375,0.61,-0.13,0.07,0.63
8.385,0.57,0.05,0.26,0.63
8.395,0.49,0.02,0.37,0.61
8.405,0.39,-0.12,0.42,0.59
8.415,0.29,-0.31,0.42,0.60
8.425,0.23,-0.51,0.38,0.68
8.435,0.20,-0.66,0.30,0.75
8.445,0.21,-0.76,0.18,0.81
8.455,0.24,-0.80,0.08,0.84
8.465,0.26,-0.79,0.06,0.83
8.475,0.31,-0.78,0.07,0.84
8.486,0.43,-0.76,0.08,0.88
8.496,0.49,-0.72,0.10,0.88
8.506,0.51,-0.68,0.15,0.86
8.516,0.49,-0.67,0.15,0.84
8.526,0.53,-0.66,0.07,0.85
8.536,0.62,-0.63,-0.04,0.88
8.546,0.67,-0.63,-0.18,0.93
8.556,0.67,-0.63,-0.28,0.96
8.566,0.66,-0.55,-0.27,0.90
8.576,0.65,-0.41,-0.22,0.80
8.586,0.66,-0.24,-0.13,0.71
8.596,0.61,-0.14,0.01,0.62
8.606,0.52,-0.11,0.16,0.55
8.616,0.43,-0.12,0.31,0.54
8.627,0.36,-0.17,0.35,0.53
8.637,0.35,-0.27,0.21,0.49
8.647,0.38,-0.32,0.02,0.49
8.657,0.39,-0.33,-0.18,0.55
8.667,0.41,-0.33,-0.39,0.65
8.677,0.43,-0.27,-0.54,0.74
8.687,0.44,-0.18,-0.63,0.78
8.697,0.44,-0.05,-0.65,0.79
8.707,0.43,0.05,-0.66,0.79
8.717,0.43,0.14,-0.70,0.83
8.727,0.43,0.21,-0.73,0.88
8.737,0.43,0.26,-0.75,0.91
8.748,0.39,0.32,-0.71,0.87
8.757,0.35,0.38,-0.65,0.83
8.768,0.32,0.41,-0.59,0.78
8.778,0.28,0.42,-0.52,0.73
8.788,0.25,0.45,-0.46,0.69
8.798,0.22,0.47,-0.45,0.69
8.808,0.22,0.51,-0.48,0.73
8.818,0.20,0.53,-0.52,0.77
8.828,0.16,0.59,-0.52,0.80
8.838,0.12,0.68,-0.46,0.82
8.848,0.02,0.78,-0.33,0.85
8.858,-0.05,0.87,-0.15,0.89
8.868,-0.12,0.91,-0.02,0.92
8.878,-0.18,0.88,0.03,0.90
8.888,-0.13,0.90,-0.10,0.91
8.899,-0.08,0.90,-0.31,0.95
8.909,0.01,0.86,-0.56,1.02
8.919,0.10,0.81,-0.77,1.12
8.929,0.19,0.92,-0.82,1.25
8.939,0.21,1.02,-0.71,1.26
8.949,0.21,1.03,-0.53,1.18
8.959,0.23,1.05,-0.34,1.13
8.969,0.26,1.08,-0.20,1.12
8.979,0.26,1.08,-0.09,1.12
8.989,0.21,1.01,0.06,1.04
8.999,0.13,0.91,0.16,0.94
9.009,0.13,0.85,0.22,0.88
9.019,0.15,0.83,0.22,0.87
9.029,0.13,0.85,0.23,0.89
9.040,0.19,0.98,0.23,1.03
9.050,0.30,1.18,0.14,1.23
9.060,0.35,1.25,0.07,1.30
9.070,0.24,1.13,0.16,1.17
9.080,0.02,0.84,0.42,0.95
9.090,-0.11,0.53,0.79,0.96
9.100,-0.12,0.38,1.18,1.25
9.110,-0.12,0.26,1.49,1.52
9.120,-0.22,-0.03,1.70,1.71
9.130,-0.42,-0.43,1.79,1.88
9.140,-0.54,-0.74,1.67,1.91
9.150,-0.55,-0.88,1.27,1.64
9.160,-0.51,-0.80,0.82,1.26
9.170,-0.45,-0.65,0.52,0.94
9.181,-0.49,-0.58,0.22,0.79
9.191,-0.47,-0.54,0.02,0.71
9.201,-0.47,-0.55,-0.33,0.80
9.211,-0.43,-0.56,-0.71,1.01
9.221,-0.28,-0.55,-0.95,1.13
9.231,-0.22,-0.58,-0.99,1.17
9.241,-0.26,-0.61,-0.88,1.10
9.251,-0.27,-0.60,-0.71,0.97
9.261,-0.27,-0.58,-0.51,0.82
9.271,-0.20,-0.55,-0.41,0.72
9.281,-0.10,-0.51,-0.42,0.67
9.291,-0.06,-0.46,-0.49,0.68
9.302,-0.05,-0.48,-0.54,0.73
9.312,-0.08,-0.48,-0.57,0.75
9.322,-0.07,-0.40,-0.59,0.71
9.332,-0.03,-0.32,-0.54,0.63
9.342,-0.06,-0.26,-0.38,0.46
9.352,-0.12,-0.26,-0.18,0.34
9.362,-0.17,-0.30,0.03,0.35
9.372,-0.21,-0.30,0.25,0.45
9.382,-0.22,-0.23,0.47,0.57
9.392,-0.24,-0.15,0.73,0.78
9.402,-0.27,-0.15,0.94,0.99
9.412,-0.31,-0.22,1.04,1.11
9.422,-0.39,-0.32,1.08,1.20
9.432,-0.42,-0.39,0.97,1.12
9.443,-0.42,-0.43,0.74,0.96
9.453,-0.42,-0.46,0.43,0.75
9.463,-0.45,-0.48,0.11,0.67
9.473,-0.43,-0.42,-0.26,0.65
9.483,-0.39,-0.27,-0.56,0.74
9.493,-0.36,-0.08,-0.82,0.90
9.503,-0.34,0.07,-0.98,1.04
9.513,-0.32,0.24,-1.01,1.09
9.523,-0.37,0.37,-0.93,1.07
9.533,-0.43,0.42,-0.83,1.03
9.543,-0.45,0.44,-0.74,0.97
9.553,-0.43,0.49,-0.76,1.00
9.564,-0.40,0.53,-0.82,1.06
9.573,-0.40,0.56,-0.91,1.14
9.584,-0.40,0.56,-0.99,1.20
9.594,-0.36,0.57,-0.98,1.19
9.604,-0.30,0.60,-0.91,1.13
9.614,-0.22,0.66,-0.78,1.04
9.624,-0.16,0.73,-0.58,0.95
9.634,-0.15,0.78,-0.38,0.89
9.644,-0.17,0.81,-0.24,0.86
9.654,-0.15,0.81,-0.13,0.83
9.664,-0.13,0.81,-0.04,0.82
9.674,-0.09,0.83,-0.01,0.84
9.684,-0.05,0.84,-0.02,0.84
9.694,-0.03,0.85,-0.02,0.85
9.704,-0.04,0.86,-0.06,0.86
9.715,0.00,0.88,-0.17,0.90
9.725,0.03,0.91,-0.21,0.93
9.735,-0.00,0.90,-0.21,0.92
9.745,-0.05,0.89,-0.14,0.90
9.755,-0.16,0.90,0.00,0.91
9.765,-0.16,0.93,0.03,0.94
9.775,-0.08,1.01,0.13,1.02
9.785,-0.04,1.09,0.30,1.13
9.795,0.02,1.19,0.42,1.26
9.805,0.11,1.27,0.42,1.35
9.815,0.23,1.29,0.49,1.40
9.825,0.26,1.20,0.58,1.36
9.835,0.25,1.12,0.73,1.36
9.845,0.22,1.02,0.88,1.37
9.856,0.24,0.90,1.08,1.42
9.866,0.19,0.68,1.30,1.48
9.876,0.12,0.36,1.51,1.55
9.886,0.02,0.02,1.71,1.71
9.896,-0.02,-0.29,1.74,1.76
9.906,0.09,-0.49,1.52,1.60
9.916,0.26,-0.61,1.13,1.31
9.926,0.38,-0.72,0.74,1.10
9.936,0.45,-0.75,0.47,0.99
9.946,0.48,-0.63,0.38,0.88
9.956,0.37,-0.57,0.46,0.82
9.966,0.31,-0.57,0.61,0.89
9.976,0.25,-0.60,0.70,0.96
9.986,0.15,-0.69,0.66,0.96
9.997,0.13,-0.82,0.45,0.94
10.007,0.16,-0.96,0.21,1.00
10.017,0.12,-1.10,0.05,1.10
10.027,0.16,-1.16,-0.16,1.18
10.037,0.19,-1.20,-0.27,1.24
10.047,0.32,-1.13,-0.33,1.22
10.057,0.37,-1.09,-0.38,1.21
10.067,0.51,-1.04,-0.55,1.29
10.077,0.64,-1.02,-0.71,1.40
10.087,0.66,-1.04,-0.69,1.41
10.097,0.68,-1.05,-0.67,1.41
10.107,0.68,-1.10,-0.67,1.46
10.117,0.75,-1.11,-0.71,1.52
10.127,0.71,-1.12,-0.64,1.47
10.137,0.71,-1.03,-0.52,1.36
10.148,0.63,-0.94,-0.32,1.18
10.158,0.55,-0.86,-0.10,1.02
10.168,0.54,-0.70,0.08,0.89
10.178,0.43,-0.58,0.24,0.76
10.188,0.35,-0.44,0.40,0.69
10.198,0.29,-0.29,0.51,0.66
10.208,0.32,-0.18,0.51,0.63
10.218,0.40,-0.21,0.47,0.65
10.228,0.38,-0.30,0.48,0.68
10.238,0.37,-0.32,0.50,0.70
10.248,0.42,-0.28,0.42,0.66
10.259,0.43,-0.29,0.30,0.60
10.268,0.42,-0.29,0.18,0.55
10.279,0.42,-0.33,-0.00,0.53
10.289,0.40,-0.42,-0.21,0.61
10.299,0.33,-0.37,-0.34,0.60
10.309,0.33,-0.21,-0.40,0.56
10.319,0.37,-0.09,-0.54,0.65
10.329,0.32,0.04,-0.50,0.59
10.339,0.26,0.25,-0.27,0.45
10.349,0.16,0.35,0.04,0.39
10.359,0.03,0.21,0.02,0.21
10.369,0.13,-0.03,-0.12,0.18
10.379,0.15,-0.25,-0.21,0.36
10.389,0.12,-0.30,-0.25,0.41
10.399,0.12,-0.25,-0.33,0.43
10.410,0.19,-0.11,-0.45,0.50
10.420,0.24,0.10,-0.48,0.54
10.430,0.20,0.24,-0.31,0.44
10.440,0.18,0.40,-0.09,0.45
10.450,0.17,0.57,0.05,0.60
10.460,0.13,0.50,0.14,0.53
10.470,0.12,0.29,0.25,0.40
10.480,0.12,0.15,0.36,0.41
10.490,0.10,0.11,0.34,0.37
10.500,0.08,0.08,0.25,0.27
10.510,0.04,0.01,0.17,0.17
10.520,0.22,0.05,0.05,0.23
10.530,0.50,0.22,0.03,0.55
10.541,0.51,0.20,-0.12,0.57
10.550,0.46,0.15,-0.14,0.51
10.561,0.52,0.27,0.00,0.59
10.571,0.39,0.35,0.19,0.55
10.581,0.14,0.29,0.52,0.61
10.591,0.02,0.04,0.88,0.88
10.601,-0.02,-0.26,1.09,1.12
10.611,-0.07,-0.51,1.23,1.33
10.621,0.04,-0.51,1.41,1.50
10.631,0.02,-0.32,1.53,1.57
10.641,-0.09,-0.36,1.27,1.33
10.651,-0.10,-0.65,0.86,1.09
10.661,-0.11,-0.94,0.43,1.04
10.671,-0.15,-1.08,0.03,1.09
10.682,-0.18,-1.04,-0.30,1.09
10.692,-0.19,-0.84,-0.43,0.96
10.702,-0.23,-0.63,-0.32,0.75
10.712,-0.36,-0.69,-0.17,0.79
10.722,-0.44,-0.80,0.08,0.91
10.732,-0.42,-0.75,0.32,0.91
10.742,-0.34,-0.51,0.46,0.77
10.752,-0.38,-0.43,0.42,0.71
10.762,-0.33,-0.47,0.29,0.65
10.772,-0.40,-0.60,0.13,0.73
10.782,-0.39,-0.54,0.04,0.67
10.792,-0.41,-0.42,-0.09,0.60
10.802,-0.47,-0.40,-0.35,0.71
10.813,-0.48,-0.39,-0.53,0.82
10.823,-0.58,-0.42,-0.50,0.88
10.833,-0.70,-0.50,-0.37,0.93
10.843,-0.73,-0.58,-0.25,0.96
10.853,-0.36,-0.43,-0.80,0.98
10.863,0.09,-0.21,-0.79,0.82
10.873,-0.34,-0.49,-0.18,0.63
10.883,-0.52,-0.78,0.03,0.93
10.893,-0.39,-0.66,-0.07,0.77
10.903,-0.46,-0.45,0.11,0.65
10.913,-0.51,-0.45,0.31,0.75
10.923,-0.51,-0.56,0.29,0.81
10.934,-0.46,-0.47,0.16,0.68
10.943,-0.44,-0.34,0.01,0.56
10.954,-0.40,-0.23,-0.04,0.46
10.964,-0.31,-0.18,-0.06,0.36
10.974,-0.25,-0.27,0.08,0.38
10.984,-0.14,-0.46,0.21,0.53
10.994,0.03,-0.56,0.25,0.62
11.004,0.02,-0.65,0.21,0.69
11.014,-0.00,-0.76,-0.02,0.76
11.024,0.13,-0.77,-0.23,0.81
11.034,0.24,-0.68,-0.15,0.74
