time,ax,ay,az,atotal
0.000,-0.11,0.01,0.33,0.35
0.010,-0.10,0.10,0.28,0.31
0.020,-0.06,0.10,0.28,0.30
0.030,-0.06,0.07,0.28,0.30
0.040,-0.13,0.08,0.13,0.20
0.050,-0.16,0.08,0.07,0.19
0.060,-0.15,0.10,0.11,0.21
0.070,-0.17,0.12,0.10,0.23
0.081,-0.16,0.09,0.05,0.19
0.091,-0.14,0.04,-0.05,0.16
0.101,-0.13,0.05,-0.08,0.16
0.111,-0.07,0.13,-0.02,0.15
0.121,-0.03,0.17,-0.06,0.19
0.131,-0.04,0.16,-0.15,0.22
0.141,-0.09,0.13,-0.13,0.21
0.151,-0.11,0.10,-0.08,0.17
0.161,-0.11,0.05,-0.06,0.14
0.171,-0.08,-0.01,-0.14,0.16
0.181,-0.04,-0.09,-0.23,0.25
0.191,0.00,-0.17,-0.25,0.30
0.201,0.01,-0.22,-0.25,0.33
0.212,-0.04,-0.27,-0.25,0.37
0.221,-0.11,-0.32,-0.20,0.39
0.232,-0.17,-0.39,-0.22,0.48
0.242,-0.14,-0.47,-0.22,0.54
0.252,-0.10,-0.55,-0.26,0.62
0.262,-0.09,-0.60,-0.30,0.68
0.272,-0.02,-0.61,-0.32,0.69
0.282,0.04,-0.62,-0.49,0.79
0.292,0.07,-0.63,-0.60,0.87
0.302,-0.00,-0.60,-0.61,0.86
0.312,-0.19,-0.58,-0.55,0.82
0.322,-0.22,-0.53,-0.35,0.67
0.332,-0.28,-0.43,-0.10,0.52
0.342,-0.41,-0.41,0.07,0.58
0.353,-0.29,-0.76,0.26,0.85
0.362,0.06,-1.48,0.88,1.72
0.373,0.18,-0.99,0.17,1.02
0.383,0.57,-0.74,-0.61,1.11
0.393,0.64,-1.04,-0.94,1.54
0.403,0.78,-1.28,-0.80,1.70
0.413,0.66,-1.41,-0.76,1.73
0.423,0.45,-1.57,-0.35,1.67
0.433,0.35,-1.62,0.34,1.69
0.443,0.37,-1.21,0.82,1.51
0.453,0.34,-0.64,0.77,1.06
0.463,0.39,-0.30,0.46,0.68
0.473,0.64,-0.26,0.52,0.87
0.483,0.65,-0.41,0.97,1.24
0.494,0.98,-0.32,0.95,1.40
0.504,1.60,-0.22,0.37,1.66
0.514,1.97,0.00,0.02,1.97
0.524,1.87,0.08,0.14,1.88
0.534,1.34,0.30,0.47,1.45
0.544,1.41,0.73,1.11,1.94
0.554,1.31,1.69,1.20,2.46
0.564,0.15,1.79,0.57,1.89
0.574,-1.28,1.19,0.40,1.79
0.584,-2.97,0.74,0.59,3.12
0.594,-3.71,0.80,0.72,3.86
0.604,-2.31,0.99,2.05,3.24
0.615,-0.99,1.46,1.84,2.55
0.624,-0.46,1.32,1.59,2.12
0.635,-0.33,0.09,3.34,3.36
0.645,-0.59,1.06,3.28,3.50
0.655,-0.48,2.75,5.59,6.25
0.665,-0.46,3.64,5.55,6.65
0.675,-1.21,4.00,4.24,5.96
0.685,-1.39,4.26,4.17,6.12
0.695,-0.95,4.77,3.58,6.04
0.705,-0.85,4.78,2.80,5.61
0.715,-0.62,3.07,3.29,4.54
0.725,-0.29,2.34,2.63,3.53
0.735,-0.22,2.12,1.79,2.79
0.745,-0.43,1.48,1.27,2.00
0.755,0.25,1.15,0.53,1.29
0.765,0.23,0.49,0.14,0.56
0.776,0.47,0.28,-0.81,0.98
0.786,0.97,0.23,-1.28,1.63
0.796,1.24,0.03,-0.76,1.46
0.806,1.03,-0.19,-1.86,2.13
0.816,0.85,-0.62,-2.73,2.93
0.826,1.14,-1.50,-2.49,3.12
0.836,1.51,-2.28,-2.15,3.48
0.846,1.92,-2.84,-2.19,4.07
0.856,2.33,-3.34,-2.63,4.85
0.866,2.46,-3.88,-3.23,5.62
0.876,2.38,-4.25,-3.72,6.13
0.886,2.41,-4.56,-4.07,6.57
0.896,2.50,-4.72,-4.42,6.94
0.906,2.38,-4.56,-4.61,6.90
0.917,2.00,-4.36,-4.73,6.74
0.927,1.21,-4.59,-4.43,6.50
0.937,0.57,-4.89,-4.18,6.46
0.947,0.55,-4.68,-4.40,6.45
0.957,0.54,-4.44,-4.10,6.07
0.967,0.49,-4.51,-3.61,5.80
0.977,0.46,-4.13,-2.94,5.09
0.987,0.30,-3.25,-2.19,3.93
0.997,0.34,-2.44,-1.77,3.03
1.007,0.84,-1.55,-0.93,1.99
1.017,0.40,0.01,-1.64,1.69
1.027,0.42,-1.10,-2.30,2.58
1.037,0.73,-1.19,0.29,1.42
1.048,-0.81,0.82,5.38,5.51
1.057,-2.33,3.35,6.61,7.77
1.068,-3.57,6.67,2.56,7.98
1.078,-5.47,7.86,1.65,9.72
1.088,-2.65,3.03,3.73,5.48
1.098,-1.01,5.11,5.17,7.34
1.108,-2.88,7.50,5.21,9.58
1.118,-5.41,7.93,4.80,10.74
1.128,-6.00,9.34,5.09,12.21
1.138,-5.25,9.37,5.98,12.29
1.148,-3.60,8.69,6.43,11.40
1.158,-1.23,6.54,7.56,10.07
1.168,-0.34,4.90,6.45,8.11
1.178,-0.64,3.11,4.81,5.76
1.189,-0.77,0.74,3.60,3.76
1.199,-0.24,-0.83,2.46,2.61
1.209,0.71,-0.96,1.19,1.69
1.219,1.90,-1.28,0.39,2.33
1.229,1.56,-2.38,-1.24,3.11
1.239,1.81,-3.29,-2.73,4.64
1.249,2.80,-4.72,-4.29,6.96
1.259,3.12,-7.43,-6.66,10.45
1.269,2.46,-7.26,-8.35,11.33
1.279,1.81,-6.48,-9.59,11.72
1.289,1.89,-6.48,-9.00,11.25
1.299,2.08,-6.08,-8.34,10.53
1.309,1.98,-5.84,-9.24,11.11
1.319,1.54,-5.81,-9.21,11.00
1.329,0.98,-5.91,-8.49,10.39
1.340,0.70,-6.19,-8.17,10.28
1.350,0.67,-6.28,-8.55,10.63
1.360,0.26,-5.42,-8.75,10.30
1.370,-0.27,-3.81,-8.49,9.31
1.380,-0.70,-1.77,-8.17,8.39
1.390,-1.40,1.15,-7.47,7.69
1.400,-2.69,5.03,-6.35,8.54
1.410,-3.94,8.77,-4.75,10.72
1.420,-3.57,7.30,-3.04,8.68
1.430,-2.27,5.75,-0.64,6.22
1.440,-2.09,5.99,1.84,6.61
1.451,-2.67,5.41,4.01,7.24
1.461,-2.92,5.66,5.81,8.62
1.471,-3.05,5.78,8.32,10.58
1.481,-2.99,5.71,11.36,13.06
1.491,-2.32,4.90,13.92,14.94
1.501,-1.28,2.94,15.25,15.59
1.511,-0.16,1.06,15.85,15.89
1.521,0.14,-0.31,14.59,14.60
1.531,0.21,-1.29,13.27,13.33
1.541,-0.12,-1.36,12.23,12.31
1.551,-0.43,-1.65,10.14,10.28
1.561,0.00,-1.93,7.50,7.75
1.571,0.68,-2.32,4.71,5.30
1.581,1.69,-2.87,1.38,3.60
1.591,2.71,-3.55,-1.78,4.81
1.602,3.47,-4.16,-4.08,6.78
1.612,3.60,-4.34,-5.88,8.15
1.622,3.36,-3.67,-7.86,9.30
1.632,2.61,-3.17,-9.12,10.00
1.642,1.57,-3.12,-9.98,10.57
1.652,0.43,-3.47,-10.66,11.21
1.662,-0.65,-4.21,-10.83,11.64
1.672,-1.37,-5.23,-10.94,12.20
1.682,-1.59,-6.11,-11.14,12.81
1.692,-2.03,-5.95,-10.58,12.31
1.702,-2.34,-4.53,-10.57,11.73
1.712,-1.97,-2.57,-11.06,11.52
1.722,-1.65,-0.75,-10.85,11.00
1.733,-1.65,0.14,-10.20,10.34
1.742,-1.21,0.37,-8.58,8.67
1.753,-0.97,0.30,-6.41,6.49
1.763,-0.95,0.88,-4.38,4.56
1.773,-0.82,2.20,-2.60,3.51
1.783,-0.74,4.20,-0.26,4.27
1.793,-0.07,4.83,2.16,5.30
1.803,0.85,3.89,4.92,6.33
1.813,0.80,4.03,8.04,9.02
1.823,0.85,3.59,10.36,11.00
1.833,1.33,2.36,11.71,12.02
1.844,0.92,3.09,13.56,13.94
1.853,0.27,4.47,15.16,15.80
1.864,0.38,4.97,16.62,17.35
1.874,0.75,5.18,18.20,18.94
1.884,1.42,4.37,19.11,19.66
1.894,2.37,2.97,18.93,19.31
1.904,2.94,1.81,18.54,18.86
1.914,3.15,1.08,17.35,17.67
1.924,3.06,0.59,15.22,15.54
1.934,3.03,-0.21,12.06,12.44
1.944,3.12,-1.25,7.71,8.41
1.954,2.81,-2.01,3.31,4.79
1.964,2.32,-2.73,-0.93,3.70
1.974,1.50,-3.25,-4.48,5.74
1.985,0.53,-4.01,-7.51,8.53
1.994,-0.62,-5.09,-9.84,11.10
2.005,-2.04,-6.40,-11.75,13.54
2.015,-3.43,-7.61,-13.60,15.95
2.025,-4.41,-8.34,-15.04,17.76
2.035,-5.01,-8.75,-16.22,19.09
2.045,-5.41,-9.10,-16.91,19.95
2.055,-5.80,-9.04,-17.18,20.26
2.065,-6.37,-8.30,-17.23,20.15
2.075,-6.87,-7.35,-16.91,19.68
2.085,-6.85,-6.49,-16.53,19.04
2.095,-6.24,-5.69,-15.78,17.90
2.105,-5.34,-4.93,-14.36,16.09
2.115,-4.34,-4.05,-11.99,13.38
2.126,-3.50,-2.66,-8.97,9.99
2.135,-2.43,-1.29,-5.69,6.32
2.146,-1.48,0.32,-2.45,2.88
2.155,-0.85,2.47,0.46,2.65
2.166,-0.13,4.73,2.95,5.58
2.176,1.73,4.48,4.82,6.80
2.186,4.00,2.07,6.57,7.97
2.196,4.37,1.87,9.81,10.90
2.206,3.61,2.77,13.31,14.06
2.216,3.35,2.99,15.11,15.76
2.226,3.14,3.51,16.37,17.04
2.236,2.41,4.86,16.96,17.81
2.247,1.46,5.90,17.17,18.22
2.256,0.84,5.75,16.42,17.42
2.266,0.16,5.21,14.63,15.53
2.277,-0.33,4.44,12.65,13.41
2.287,-0.10,3.21,10.97,11.43
2.297,0.15,2.63,9.98,10.32
2.307,0.33,2.40,8.59,8.92
2.317,0.67,2.03,7.12,7.44
2.327,1.11,1.19,5.15,5.40
2.337,1.48,0.10,2.46,2.88
2.347,1.70,-1.02,-0.60,2.07
2.357,1.44,-2.02,-3.70,4.46
2.367,1.13,-2.98,-6.72,7.44
2.377,0.80,-3.80,-9.46,10.23
2.387,0.21,-4.43,-11.46,12.29
2.397,-0.63,-4.97,-13.10,14.02
2.407,-1.74,-5.55,-14.21,15.35
2.417,-2.63,-6.39,-14.69,16.24
2.428,-3.44,-7.33,-14.81,16.88
2.438,-4.09,-7.91,-14.57,17.07
2.448,-4.64,-7.72,-14.01,16.66
2.458,-4.85,-7.24,-13.60,16.15
2.468,-4.88,-6.19,-12.49,14.77
2.478,-4.48,-5.33,-11.02,13.03
2.488,-3.70,-4.38,-9.09,10.75
2.498,-2.64,-3.78,-6.50,7.97
2.508,-1.49,-3.14,-3.43,4.88
2.518,-0.58,-1.78,-0.52,1.94
2.528,-0.33,1.25,2.36,2.69
2.538,-0.09,4.32,4.91,6.55
2.548,1.52,3.75,6.97,8.06
2.558,4.50,0.24,8.98,10.05
2.569,6.51,-1.47,10.86,12.74
2.579,6.60,-0.90,12.98,14.59
2.589,6.30,0.75,14.19,15.55
2.599,6.15,3.00,14.95,16.44
2.609,5.69,5.47,15.77,17.63
2.619,5.41,7.35,16.16,18.56
2.629,5.52,7.40,14.72,17.37
2.639,4.76,7.45,13.16,15.86
2.649,3.65,7.33,11.25,13.92
2.659,2.72,7.02,8.57,11.41
2.669,1.98,6.87,6.12,9.41
2.679,1.71,6.22,3.69,7.43
2.690,1.74,4.81,1.44,5.31
2.699,1.55,2.83,-0.22,3.24
2.710,0.98,0.53,-1.31,1.72
2.720,-0.20,-2.43,-2.65,3.60
2.730,-2.00,-4.67,-4.16,6.57
2.740,-2.59,-5.55,-5.12,7.99
2.750,-2.42,-6.95,-5.68,9.30
2.760,-2.57,-6.95,-6.65,9.95
2.770,-3.18,-6.05,-7.46,10.12
2.780,-3.68,-4.96,-8.15,10.22
2.790,-3.77,-4.49,-9.00,10.74
2.800,-3.89,-4.40,-9.52,11.19
2.810,-4.35,-4.60,-9.17,11.14
2.821,-4.55,-4.53,-8.97,11.03
2.830,-4.46,-4.28,-9.02,10.94
2.840,-4.42,-3.67,-8.79,10.50
2.851,-4.41,-3.01,-8.34,9.90
2.861,-4.03,-2.66,-7.72,9.11
2.871,-3.43,-2.53,-6.52,7.79
2.881,-2.84,-2.22,-4.73,5.95
2.891,-2.15,-1.65,-2.82,3.91
2.901,-1.62,0.13,-1.00,1.91
2.911,-2.11,4.23,1.06,4.85
2.921,-2.29,7.10,2.21,7.78
2.931,0.47,4.06,2.49,4.79
2.941,4.03,0.03,3.53,5.35
2.951,4.69,0.47,6.13,7.73
2.961,4.11,2.14,7.90,9.16
2.971,4.53,2.52,8.39,9.86
2.982,4.61,3.16,8.77,10.40
2.992,3.77,4.55,8.90,10.69
3.002,2.91,5.65,9.21,11.19
3.012,3.02,5.23,9.10,10.92
3.022,3.68,4.28,7.80,9.63
3.032,4.00,3.69,6.30,8.33
3.042,3.91,3.78,4.93,7.34
3.052,3.76,3.95,3.36,6.41
3.062,3.58,3.70,1.65,5.40
3.072,3.08,3.12,0.04,4.39
3.082,2.46,1.82,-1.45,3.38
3.092,1.72,-0.09,-2.70,3.20
3.102,0.86,-1.74,-3.52,4.02
3.113,0.21,-2.88,-4.35,5.22
3.123,-0.79,-4.23,-5.00,6.60
3.133,-2.06,-4.09,-5.33,7.03
3.143,-2.28,-2.99,-5.66,6.80
3.153,-2.27,-2.74,-6.24,7.18
3.163,-2.75,-2.51,-6.99,7.92
3.173,-3.15,-2.53,-7.37,8.41
3.183,-2.93,-3.07,-7.61,8.71
3.193,-2.37,-3.59,-7.77,8.88
3.203,-1.85,-3.57,-7.41,8.43
3.213,-1.66,-2.48,-6.77,7.39
3.223,-1.56,-0.77,-6.30,6.54
3.233,-1.37,0.58,-5.63,5.82
3.243,-1.25,1.02,-4.11,4.42
3.254,-0.86,0.59,-2.39,2.60
3.264,-0.45,-0.08,-1.13,1.22
3.274,-0.42,1.18,0.19,1.27
3.284,-0.61,4.23,2.03,4.74
3.294,-0.10,2.64,3.36,4.28
3.304,2.31,-3.20,3.65,5.38
3.314,4.20,-5.63,4.75,8.48
3.324,3.66,-5.46,6.75,9.42
3.334,2.67,-4.27,7.44,8.99
3.344,1.91,-1.58,8.12,8.49
3.354,0.67,1.60,8.54,8.71
3.364,-0.30,3.79,9.05,9.82
3.374,-0.56,4.69,9.35,10.48
3.385,-0.41,5.25,9.38,10.75
3.395,0.34,5.36,9.13,10.60
3.405,1.72,4.54,8.86,10.10
3.415,2.95,3.56,8.88,10.01
3.425,3.55,2.45,8.62,9.64
3.435,3.54,1.10,7.74,8.58
3.445,2.93,-0.08,6.43,7.06
3.455,2.19,-1.14,4.38,5.02
3.465,1.59,-1.67,2.18,3.18
3.475,1.39,-2.08,-0.24,2.51
3.485,1.29,-2.59,-2.93,4.12
3.495,1.09,-3.18,-4.83,5.89
3.505,0.66,-3.64,-6.57,7.54
3.516,0.03,-3.85,-8.06,8.93
3.525,-0.60,-4.09,-9.12,10.02
3.536,-1.06,-4.44,-10.03,11.02
3.546,-1.60,-4.69,-10.61,11.71
3.556,-2.19,-4.95,-10.76,12.05
3.566,-2.69,-5.27,-10.68,12.21
3.576,-3.12,-5.39,-10.35,12.08
3.586,-3.44,-5.23,-9.96,11.76
3.596,-3.64,-4.57,-9.34,11.01
3.606,-4.11,-3.24,-8.58,10.05
3.616,-4.55,-1.74,-7.36,8.83
3.626,-4.63,-0.72,-6.24,7.81
3.636,-4.52,0.41,-5.27,6.95
3.646,-4.79,2.95,-4.17,7.00
3.657,-5.40,6.12,-2.25,8.46
3.667,-5.32,7.47,0.13,9.17
3.677,-2.84,4.30,1.89,5.49
3.687,0.09,0.83,3.27,3.38
3.697,0.56,1.32,6.23,6.39
3.707,0.20,2.32,8.02,8.35
3.717,0.41,3.34,8.95,9.57
3.727,-0.18,4.64,11.76,12.64
3.737,-0.81,4.68,14.74,15.48
3.747,-0.20,3.73,15.69,16.13
3.757,0.51,2.85,15.71,15.98
3.768,0.73,2.32,15.19,15.39
3.778,0.62,1.97,13.94,14.09
3.787,0.58,1.82,12.31,12.46
3.797,0.73,1.85,9.77,9.97
3.807,1.08,1.93,6.72,7.07
3.818,1.40,1.77,3.57,4.22
3.828,1.70,1.24,0.69,2.21
3.838,1.82,0.49,-1.80,2.61
3.848,1.64,-0.71,-3.60,4.02
3.858,1.16,-1.62,-5.26,5.62
3.868,0.74,-2.90,-6.84,7.47
3.878,0.55,-4.31,-8.26,9.34
3.888,0.08,-5.34,-9.26,10.69
3.898,-0.33,-6.14,-10.17,11.89
3.908,-0.59,-6.96,-10.90,12.95
3.918,-0.79,-7.65,-11.22,13.60
3.928,-0.91,-8.14,-11.30,13.96
3.938,-1.05,-7.95,-11.25,13.81
3.949,-1.21,-7.10,-11.02,13.17
3.959,-1.26,-5.72,-10.64,12.14
3.969,-1.21,-4.09,-9.72,10.61
3.979,-1.07,-2.57,-8.62,9.06
3.989,-0.67,-1.51,-7.44,7.62
3.999,-0.46,-0.47,-5.99,6.02
4.009,-0.29,1.00,-4.27,4.40
4.019,-0.81,3.57,-2.55,4.46
4.029,-1.99,6.85,-0.80,7.18
4.039,-2.87,8.01,1.17,8.59
4.049,-1.52,4.48,2.94,5.57
4.059,-0.23,2.37,4.01,4.66
4.069,-1.28,3.11,6.12,6.98
4.080,-2.55,4.12,7.44,8.88
4.090,-2.70,4.58,7.96,9.58
4.100,-2.71,4.42,9.53,10.85
4.110,-3.01,4.29,11.65,12.77
4.120,-2.93,3.71,12.85,13.69
4.130,-2.37,2.45,12.72,13.17
4.140,-1.73,1.15,12.08,12.25
4.150,-1.13,0.08,10.93,10.99
4.160,-0.47,-0.91,9.38,9.43
4.170,0.13,-1.22,7.85,7.94
4.180,0.45,-0.92,6.20,6.28
4.190,0.82,-0.84,4.03,4.19
4.200,1.12,-1.07,1.95,2.49
4.210,1.30,-1.66,0.16,2.11
4.221,1.56,-2.07,-1.58,3.04
4.231,1.51,-2.42,-2.88,4.06
4.241,1.25,-2.69,-3.98,4.96
4.251,0.92,-2.92,-4.90,5.77
4.261,0.75,-3.19,-5.76,6.63
4.271,0.81,-3.21,-6.68,7.46
4.281,1.05,-3.15,-7.43,8.14
4.291,1.36,-3.22,-7.97,8.71
4.302,1.65,-3.31,-8.30,9.08
4.311,1.85,-3.40,-8.50,9.34
4.321,2.02,-3.24,-8.47,9.29
4.331,1.82,-3.38,-7.75,8.65
4.341,1.50,-2.95,-6.91,7.66
4.352,1.26,-3.07,-6.18,7.01
4.362,0.92,-3.49,-5.32,6.43
4.372,0.56,-2.09,-4.22,4.75
4.382,-0.10,-0.87,-3.32,3.43
4.392,-0.59,0.30,-2.03,2.14
4.402,-1.04,1.53,-0.66,1.96
4.412,-1.44,2.63,0.73,3.09
4.422,-1.85,3.40,2.36,4.54
4.432,-1.96,4.09,4.08,6.10
4.442,-1.78,4.37,5.62,7.34
4.452,-1.15,3.69,6.54,7.59
4.462,-0.59,3.25,6.83,7.59
4.472,-0.66,3.05,7.50,8.12
4.483,-0.99,2.89,8.07,8.63
4.493,-1.51,2.91,8.23,8.86
4.503,-2.37,3.49,8.28,9.29
4.513,-2.99,4.19,8.42,9.87
4.523,-3.18,4.48,8.43,10.06
4.533,-2.82,4.33,8.23,9.72
4.543,-1.95,3.63,7.93,8.94
4.553,-1.06,2.93,7.47,8.09
4.563,-0.30,2.17,6.73,7.08
4.573,0.40,1.44,5.47,5.67
4.583,0.93,0.93,3.98,4.19
4.593,1.27,0.49,2.39,2.75
4.603,1.54,-0.36,0.70,1.73
4.613,1.95,-1.83,-1.01,2.86
4.624,2.28,-3.61,-2.82,5.12
4.633,2.29,-5.05,-4.33,7.04
4.644,2.10,-5.94,-5.53,8.38
4.654,1.74,-6.37,-6.92,9.57
4.664,1.13,-6.48,-7.85,10.24
4.674,0.41,-6.47,-8.27,10.51
4.684,-0.21,-6.73,-8.62,10.94
4.694,-0.36,-7.38,-8.73,11.43
4.704,-0.31,-7.64,-8.61,11.51
4.714,-0.51,-8.49,-8.34,11.91
4.724,-0.71,-8.68,-7.66,11.60
4.734,-1.11,-7.44,-7.32,10.50
4.745,-1.62,-7.01,-6.98,10.02
4.754,-1.65,-6.14,-6.64,9.20
4.764,-1.77,-5.36,-6.34,8.49
4.775,-1.76,-4.62,-5.43,7.34
4.785,-1.70,-3.49,-4.55,5.98
4.795,-1.63,-1.87,-3.70,4.46
4.805,-1.69,0.33,-2.66,3.17
4.815,-1.73,2.21,-1.42,3.15
4.825,-1.62,3.78,-0.38,4.13
4.835,-1.39,5.11,0.37,5.31
4.845,-0.72,5.00,1.44,5.25
4.855,-0.31,6.55,2.18,6.91
4.865,-0.37,9.61,3.80,10.34
4.875,-0.20,11.35,5.11,12.45
4.886,0.42,11.93,5.50,13.15
4.895,0.92,12.71,6.50,14.30
4.906,1.42,13.75,8.14,16.04
4.916,2.17,13.38,9.75,16.70
4.926,2.99,11.78,10.90,16.32
4.936,3.65,9.35,11.39,15.18
4.946,3.84,6.62,10.97,13.37
4.956,3.51,4.29,9.69,11.16
4.966,2.97,2.35,7.84,8.71
4.976,2.62,0.58,5.63,6.23
4.986,2.37,-1.20,3.13,4.10
4.996,2.43,-2.91,0.57,3.83
5.006,2.44,-4.65,-1.90,5.58
5.016,2.24,-6.09,-3.86,7.55
5.026,1.75,-7.43,-5.32,9.30
5.036,1.37,-8.61,-6.56,10.91
5.047,1.00,-9.17,-7.51,11.90
5.057,0.34,-9.51,-8.20,12.56
5.067,-0.25,-9.67,-8.58,12.93
5.077,-0.79,-9.63,-8.49,12.86
5.087,-1.36,-9.33,-8.24,12.52
5.097,-1.69,-8.99,-7.91,12.09
5.107,-1.64,-8.67,-7.93,11.86
5.117,-1.53,-8.01,-8.19,11.56
5.127,-1.67,-6.61,-7.99,10.50
5.137,-1.73,-5.17,-7.45,9.23
5.147,-1.61,-3.97,-6.81,8.04
5.157,-1.44,-2.95,-5.73,6.60
5.167,-1.15,-1.72,-4.18,4.66
5.178,-0.87,0.02,-2.36,2.52
5.188,-0.22,1.77,-0.54,1.87
5.198,0.64,3.17,1.25,3.47
5.208,1.55,4.28,2.78,5.33
5.218,2.28,5.09,4.14,6.94
5.228,2.66,5.34,5.44,8.08
5.238,2.67,4.99,6.60,8.69
5.248,2.29,5.24,7.42,9.37
5.258,1.52,6.19,8.09,10.30
5.268,0.61,7.54,8.44,11.34
5.278,-0.03,9.39,9.07,13.05
5.289,-0.15,10.89,9.79,14.65
5.298,0.26,11.21,10.13,15.11
5.308,0.75,10.34,10.29,14.61
5.319,1.20,8.66,10.04,13.31
5.329,1.56,6.34,9.22,11.30
5.339,1.26,3.80,7.71,8.69
5.349,0.63,1.59,5.95,6.19
5.359,0.14,-0.45,3.86,3.88
5.369,-0.10,-2.27,1.68,2.83
5.379,-0.27,-3.80,-0.36,3.82
5.389,-0.15,-5.22,-2.44,5.76
5.399,0.23,-6.56,-4.40,7.90
5.409,0.51,-7.52,-6.10,9.70
5.419,0.40,-8.70,-7.61,11.57
5.429,0.09,-9.20,-8.69,12.65
5.439,-0.28,-9.42,-9.87,13.65
5.450,-0.84,-9.39,-10.99,14.48
5.460,-1.58,-8.76,-11.59,14.61
5.470,-2.21,-7.88,-11.88,14.42
5.480,-3.12,-7.83,-12.17,14.81
5.490,-3.33,-7.02,-11.76,14.09
5.500,-3.63,-6.23,-11.59,13.65
5.510,-4.16,-5.66,-11.01,13.06
5.520,-4.29,-4.70,-9.66,11.57
5.530,-4.15,-3.81,-8.13,9.89
5.540,-3.75,-2.88,-6.45,8.00
5.550,-3.30,-1.83,-4.15,5.61
5.560,-2.90,0.37,-2.05,3.58
5.570,-2.96,4.40,-0.18,5.30
5.581,-2.89,7.62,1.74,8.33
5.590,-1.02,6.82,3.37,7.67
5.601,1.80,3.82,5.37,6.83
5.611,2.92,3.30,8.99,10.01
5.621,3.18,4.00,11.91,12.96
5.631,4.06,3.44,13.26,14.29
5.641,4.99,3.37,14.46,15.66
5.651,5.27,4.72,15.11,16.69
5.661,4.68,5.65,16.22,17.80
5.671,4.31,5.90,17.11,18.61
5.682,4.66,5.12,16.47,17.87
5.692,5.06,4.26,14.74,16.15
5.702,5.11,3.68,13.05,14.49
5.712,4.84,2.93,11.04,12.41
5.722,4.22,2.34,8.80,10.03
5.732,3.47,1.79,6.51,7.59
5.742,2.76,0.89,3.97,4.91
5.752,2.04,-0.29,1.29,2.44
5.762,1.44,-1.73,-1.12,2.52
5.772,0.92,-3.45,-3.33,4.89
5.782,0.51,-5.23,-5.35,7.50
5.792,0.13,-7.13,-6.96,9.97
5.802,-0.24,-8.03,-8.23,11.50
5.812,-0.73,-8.42,-9.36,12.61
5.822,-1.34,-8.48,-10.08,13.24
5.832,-1.95,-8.36,-10.44,13.51
5.843,-2.33,-8.39,-10.23,13.44
5.852,-2.57,-8.48,-9.62,13.08
5.862,-2.72,-8.50,-9.26,12.86
5.873,-2.82,-8.52,-8.76,12.54
5.883,-2.63,-8.13,-8.08,11.76
5.893,-2.38,-7.72,-7.36,10.93
5.903,-2.21,-7.07,-6.31,9.73
5.913,-2.20,-5.65,-5.15,7.96
5.923,-2.21,-3.73,-3.96,5.87
5.933,-2.21,-1.41,-2.63,3.71
5.943,-2.38,1.42,-1.31,3.07
5.953,-2.27,3.55,0.11,4.22
5.963,-1.24,3.51,1.37,3.97
5.973,0.45,2.77,2.03,3.47
5.984,1.20,3.29,2.75,4.45
5.993,0.47,4.55,4.20,6.21
6.004,-0.51,6.15,5.40,8.19
6.014,-1.25,7.99,5.94,10.03
6.024,-1.95,10.28,6.27,12.20
6.034,-1.93,11.66,6.73,13.60
6.044,-0.85,10.19,7.36,12.60
6.054,0.73,8.04,7.72,11.17
6.064,1.61,7.22,7.86,10.79
6.074,1.70,6.42,7.65,10.13
6.084,1.84,5.19,6.87,8.81
6.094,1.62,3.53,6.02,7.17
6.104,1.04,2.03,5.08,5.57
6.114,0.54,0.47,3.90,3.97
6.124,0.42,-1.15,2.32,2.62
6.135,0.95,-2.90,1.06,3.23
6.145,1.51,-4.58,0.26,4.83
6.155,1.76,-5.20,-0.87,5.56
6.165,1.58,-5.45,-1.91,5.98
6.175,1.18,-5.17,-2.61,5.91
6.185,0.71,-4.52,-3.83,5.96
6.195,-0.14,-4.43,-4.75,6.49
6.205,-0.91,-4.58,-5.15,6.95
6.215,-1.49,-4.84,-5.66,7.60
6.225,-2.18,-4.78,-6.16,8.09
6.235,-2.90,-4.62,-6.37,8.39
6.245,-3.40,-4.53,-6.36,8.52
6.255,-3.54,-4.49,-6.52,8.67
6.265,-3.48,-4.49,-6.53,8.66
6.276,-3.38,-4.22,-6.17,8.20
6.286,-3.33,-3.68,-5.58,7.47
6.296,-3.40,-2.86,-4.79,6.53
6.306,-3.41,-1.83,-3.87,5.47
6.316,-3.31,-0.54,-2.97,4.48
6.326,-3.03,0.83,-2.00,3.72
6.336,-2.47,1.97,-0.95,3.29
6.346,-1.57,2.33,-0.16,2.81
6.356,-0.45,1.82,0.44,1.93
6.366,0.48,1.77,1.33,2.27
6.376,0.76,2.39,2.53,3.57
6.386,0.52,3.41,3.66,5.03
6.396,0.37,4.60,4.28,6.30
6.406,0.46,5.79,4.49,7.34
6.417,0.51,6.78,5.05,8.47
6.427,0.62,7.30,5.90,9.40
6.437,1.24,7.20,6.04,9.48
6.447,2.20,6.60,6.11,9.26
6.457,2.94,6.08,6.60,9.44
6.467,3.51,5.86,6.86,9.68
6.477,3.91,5.41,6.72,9.47
6.487,3.96,4.41,6.25,8.61
6.497,3.64,3.25,5.53,7.38
6.507,3.01,2.20,4.70,6.00
6.517,2.17,1.05,3.68,4.40
6.527,1.54,-0.24,2.25,2.74
6.537,1.28,-1.55,0.62,2.10
6.548,1.06,-2.91,-0.77,3.19
6.558,0.72,-4.13,-1.76,4.55
6.568,0.30,-5.18,-2.65,5.83
6.578,-0.06,-6.25,-3.56,7.20
6.588,-0.32,-7.20,-4.34,8.41
6.598,-0.65,-7.84,-4.94,9.29
6.608,-0.94,-8.39,-5.45,10.05
6.618,-1.04,-8.81,-5.88,10.64
6.628,-1.17,-8.90,-6.29,10.96
6.638,-1.44,-8.66,-6.57,10.96
6.648,-1.63,-8.53,-6.76,11.01
6.658,-1.61,-8.41,-6.86,10.98
6.668,-1.60,-8.05,-6.64,10.56
6.678,-1.85,-7.03,-6.12,9.50
6.688,-2.31,-5.31,-5.27,7.83
6.699,-2.70,-3.36,-4.25,6.06
6.709,-2.75,-1.44,-3.28,4.52
6.719,-2.70,0.84,-2.08,3.51
6.729,-2.41,3.56,-0.93,4.40
6.739,-1.56,5.53,0.04,5.74
6.749,-0.35,6.42,1.01,6.50
6.759,0.88,7.29,1.87,7.57
6.769,1.60,8.32,3.24,9.08
6.779,1.99,9.17,4.71,10.50
6.789,2.73,9.01,5.59,10.95
6.799,3.31,8.74,6.31,11.28
6.809,3.61,8.67,7.28,11.88
6.819,3.71,8.41,8.29,12.38
6.829,3.83,7.84,9.10,12.61
6.840,4.08,6.58,9.18,12.00
6.850,4.09,4.81,8.64,10.70
6.860,3.84,2.72,7.69,9.01
6.870,3.31,0.63,6.40,7.23
6.880,2.62,-1.20,4.97,5.74
6.890,2.08,-2.72,3.37,4.80
6.900,1.62,-3.81,1.53,4.42
6.910,1.15,-4.61,-0.23,4.75
6.920,0.65,-5.36,-1.99,5.75
6.930,0.10,-6.05,-3.78,7.14
6.940,-0.67,-6.46,-5.28,8.37
6.950,-1.50,-6.49,-6.36,9.21
6.961,-2.22,-6.62,-7.22,10.05
6.971,-2.66,-6.97,-7.99,10.93
6.981,-3.04,-7.08,-8.51,11.48
6.991,-3.56,-6.78,-8.61,11.52
7.001,-3.84,-6.40,-8.48,11.30
7.011,-3.68,-6.46,-8.67,11.42
7.021,-3.47,-6.30,-8.77,11.34
7.031,-3.43,-5.52,-8.37,10.60
7.041,-3.38,-4.58,-7.93,9.76
7.051,-3.22,-3.16,-7.34,8.62
7.061,-3.23,-1.16,-6.33,7.20
7.071,-3.57,1.66,-4.90,6.29
7.081,-3.83,4.29,-3.19,6.58
7.092,-3.78,6.13,-1.48,7.35
7.102,-3.10,7.28,0.10,7.91
7.112,-1.99,7.54,1.99,8.05
7.122,-1.20,7.57,4.52,8.90
7.132,-0.80,7.89,7.36,10.82
7.142,-0.36,7.92,9.52,12.39
7.152,0.10,7.20,11.22,13.33
7.162,0.60,6.17,12.75,14.18
7.172,0.87,5.11,13.76,14.70
7.182,0.94,4.39,14.23,14.92
7.192,1.13,3.66,13.87,14.39
7.202,1.59,2.81,12.88,13.28
7.212,2.29,1.98,11.30,11.70
7.222,2.90,1.16,9.20,9.72
7.232,3.19,0.39,6.82,7.54
7.243,3.13,-0.20,4.55,5.53
7.253,3.02,-0.62,2.33,3.87
7.263,2.94,-1.26,0.18,3.20
7.273,2.73,-2.02,-1.84,3.86
7.283,2.72,-3.05,-3.91,5.66
7.293,2.88,-4.25,-5.74,7.70
7.303,2.62,-4.81,-7.01,8.90
7.313,2.29,-5.00,-8.31,9.96
7.323,2.09,-5.24,-9.48,11.03
7.333,1.90,-5.40,-10.42,11.89
7.343,1.71,-5.89,-11.18,12.75
7.353,1.50,-6.50,-11.47,13.27
7.363,1.09,-7.03,-11.22,13.29
7.373,0.52,-8.10,-10.56,13.32
7.383,0.18,-8.08,-9.96,12.83
7.394,-0.36,-7.64,-9.18,11.95
7.404,-1.00,-6.83,-8.06,10.61
7.414,-1.64,-5.52,-6.86,8.96
7.424,-2.23,-3.81,-5.34,6.93
7.434,-2.59,-1.74,-3.49,4.68
7.444,-2.91,0.78,-1.57,3.40
7.454,-3.01,3.62,0.42,4.73
7.464,-2.47,5.82,2.31,6.73
7.474,-1.48,6.84,4.10,8.11
7.484,-0.51,7.63,5.55,9.45
7.495,0.48,7.89,6.89,10.48
7.504,1.54,7.51,8.26,11.26
7.515,2.67,7.05,9.30,11.97
7.525,3.56,6.81,10.11,12.70
7.535,3.96,6.82,10.98,13.51
7.545,4.00,7.04,11.75,14.28
7.555,3.88,7.17,12.15,14.63
7.565,3.55,6.55,12.23,14.32
7.575,3.23,5.53,11.74,13.37
7.585,2.89,4.12,10.40,11.55
7.595,2.51,2.53,8.51,9.23
7.605,2.06,1.13,6.31,6.73
7.615,1.43,-0.20,4.17,4.41
7.625,0.90,-1.57,1.97,2.68
7.635,0.58,-2.92,-0.28,2.99
7.646,0.32,-3.98,-2.37,4.64
7.656,-0.13,-4.77,-4.16,6.33
7.666,-0.49,-5.47,-5.87,8.04
7.676,-0.66,-6.16,-7.54,9.76
7.686,-0.77,-6.58,-8.90,11.09
7.696,-0.94,-6.84,-10.00,12.15
7.706,-1.11,-7.14,-10.75,12.96
7.716,-1.36,-6.96,-11.14,13.21
7.726,-1.80,-6.72,-11.32,13.29
7.736,-2.08,-6.78,-11.61,13.60
7.746,-2.43,-6.85,-11.29,13.43
7.756,-2.73,-6.72,-11.12,13.28
7.767,-2.81,-6.29,-10.98,12.96
7.777,-3.07,-5.42,-10.34,12.07
7.786,-3.40,-4.30,-9.11,10.63
7.797,-3.59,-2.57,-7.81,8.97
7.807,-3.33,-1.79,-6.21,7.27
7.817,-3.37,-0.81,-3.55,4.96
7.827,-2.91,0.48,-1.68,3.39
7.837,-2.57,1.69,0.47,3.11
7.847,-1.92,2.73,2.54,4.19
7.857,-1.10,3.09,4.53,5.59
7.867,-0.38,3.15,6.03,6.82
7.877,0.07,3.56,7.30,8.12
7.887,0.31,4.81,8.44,9.72
7.897,0.50,6.42,9.20,11.23
7.907,0.79,7.84,9.76,12.54
7.917,1.47,8.66,10.24,13.49
7.928,2.32,8.95,10.31,13.85
7.938,3.06,9.07,10.20,13.98
7.948,3.28,8.88,9.92,13.71
7.958,3.24,7.93,9.68,12.93
7.968,3.01,6.03,9.17,11.38
7.978,3.20,3.39,8.43,9.63
7.988,3.57,0.82,7.43,8.28
7.998,3.60,-1.07,6.29,7.33
8.008,3.42,-2.15,5.21,6.59
8.018,2.86,-2.65,3.89,5.51
8.028,2.18,-2.94,2.39,4.37
8.038,1.46,-3.47,0.68,3.83
8.048,0.60,-4.18,-1.01,4.35
8.058,-0.43,-4.87,-2.69,5.58
8.069,-1.40,-5.45,-4.26,7.06
8.079,-2.32,-5.80,-5.70,8.45
8.089,-3.17,-5.88,-6.90,9.60
8.099,-3.80,-5.76,-7.85,10.45
8.109,-4.24,-6.27,-8.58,11.44
8.119,-4.41,-6.64,-9.26,12.22
8.129,-4.56,-6.76,-9.70,12.67
8.139,-4.72,-6.67,-9.87,12.81
8.149,-4.92,-6.04,-9.73,12.46
8.159,-5.14,-5.04,-9.12,11.62
8.169,-5.14,-3.73,-8.22,10.39
8.179,-5.03,-2.08,-6.99,8.86
8.189,-4.76,-0.59,-5.39,7.21
8.199,-4.12,0.97,-3.67,5.61
8.210,-3.40,2.09,-1.67,4.32
8.220,-2.67,2.68,0.48,3.81
8.230,-1.73,2.76,2.22,3.93
8.240,-0.96,3.09,3.70,4.92
8.250,-0.68,3.91,5.06,6.43
8.260,-0.68,4.87,6.13,7.85
8.270,-0.44,5.77,6.85,8.97
8.280,0.48,6.21,7.59,9.82
8.290,1.93,6.11,8.16,10.37
8.300,3.37,6.32,8.50,11.12
8.310,4.41,6.47,8.85,11.82
8.320,4.63,6.19,9.15,11.98
8.330,4.40,5.36,9.26,11.57
8.340,3.58,4.14,8.84,10.40
8.351,2.62,2.81,7.67,8.58
8.361,2.00,1.76,5.91,6.49
8.371,1.37,0.41,4.35,4.58
8.381,0.89,-1.04,2.78,3.10
8.391,0.70,-2.51,0.79,2.72
8.401,0.40,-3.71,-1.12,3.89
8.411,-0.08,-4.69,-2.90,5.52
8.421,-0.75,-5.56,-4.64,7.28
8.431,-1.34,-6.65,-6.19,9.19
8.441,-1.89,-7.75,-7.46,10.92
8.451,-2.41,-8.32,-8.17,11.91
8.462,-2.80,-8.55,-8.57,12.42
8.471,-2.98,-8.66,-8.78,12.69
8.482,-3.02,-8.62,-8.95,12.79
8.492,-2.89,-8.32,-9.06,12.64
8.502,-2.67,-7.64,-8.74,11.91
8.512,-2.53,-6.59,-8.09,10.74
8.522,-2.46,-5.20,-7.06,9.11
8.532,-2.06,-3.69,-5.92,7.27
8.542,-1.33,-2.05,-4.67,5.27
8.552,-0.42,-0.27,-3.19,3.23
8.562,0.79,1.29,-1.55,2.17
8.572,2.24,2.35,0.25,3.25
8.582,3.56,3.59,2.18,5.51
8.593,4.64,4.90,3.94,7.81
8.602,5.80,5.50,5.43,9.66
8.613,7.01,5.71,6.80,11.31
8.623,7.86,6.31,8.29,13.05
8.633,8.23,6.68,9.91,14.51
8.643,8.34,6.12,11.40,15.40
8.653,8.53,5.05,12.46,15.92
8.663,8.72,4.00,12.88,16.07
8.673,8.60,3.33,12.63,15.64
8.683,7.98,2.75,11.72,14.45
8.693,6.87,1.87,10.49,12.68
8.703,5.56,0.98,8.81,10.46
8.713,4.29,0.32,6.67,7.94
8.723,3.26,-0.31,4.32,5.42
8.733,2.32,-1.12,1.99,3.25
8.743,1.30,-2.14,-0.02,2.50
8.754,0.35,-3.42,-1.63,3.80
8.764,-0.48,-4.84,-3.18,5.81
8.774,-1.53,-6.13,-4.46,7.73
8.784,-2.80,-6.64,-5.56,9.10
8.794,-3.97,-7.20,-6.46,10.46
8.804,-4.89,-7.81,-7.12,11.64
8.814,-5.47,-8.24,-7.65,12.50
8.824,-5.86,-8.49,-8.18,13.16
8.834,-6.05,-8.63,-8.51,13.55
8.844,-6.05,-8.63,-8.70,13.67
8.854,-5.82,-8.43,-9.06,13.67
8.864,-5.44,-7.99,-9.43,13.50
8.874,-5.05,-7.10,-9.31,12.75
8.884,-4.83,-5.74,-8.57,11.39
8.894,-4.57,-4.27,-7.41,9.69
8.905,-4.26,-2.48,-5.97,7.74
8.915,-3.86,-0.57,-4.32,5.83
8.925,-3.45,1.20,-2.60,4.48
8.935,-3.00,2.98,-0.84,4.31
8.945,-2.55,4.51,0.77,5.24
8.955,-2.05,5.90,2.40,6.69
8.965,-1.58,7.18,4.33,8.53
8.975,-1.13,7.99,6.01,10.06
8.985,-0.42,8.43,7.04,11.00
8.995,0.61,8.56,8.01,11.74
9.005,1.85,8.49,9.23,12.67
9.015,3.23,8.42,9.95,13.43
9.025,4.37,8.28,10.30,13.91
9.036,4.82,7.95,10.72,14.19
9.046,4.48,7.03,11.08,13.86
9.056,3.60,5.49,10.96,12.77
9.066,2.53,3.79,10.24,11.21
9.076,1.70,2.12,8.69,9.10
9.086,1.42,0.09,6.82,6.97
9.096,1.41,-1.60,4.87,5.32
9.106,1.63,-2.88,2.71,4.28
9.116,1.83,-3.92,0.47,4.35
9.126,1.64,-4.83,-1.68,5.37
9.136,1.12,-5.64,-3.52,6.74
9.146,0.62,-6.61,-5.34,8.52
9.157,-0.05,-7.81,-7.05,10.53
9.167,-0.66,-8.49,-8.49,12.03
9.177,-1.34,-9.02,-9.81,13.39
9.187,-2.11,-8.92,-10.84,14.20
9.197,-2.63,-8.43,-11.61,14.59
9.207,-3.02,-7.89,-12.17,14.81
9.217,-3.28,-7.98,-11.89,14.69
9.227,-3.76,-7.11,-11.53,14.06
9.237,-3.96,-6.48,-10.31,12.81
9.247,-3.86,-5.44,-8.96,11.17
9.257,-3.52,-4.22,-7.65,9.42
9.267,-3.05,-3.22,-5.54,7.10
9.277,-2.39,-2.01,-3.29,4.54
9.287,-1.89,-0.35,-0.75,2.06
9.298,-1.41,1.93,2.00,3.11
9.307,-0.67,3.52,4.55,5.80
9.318,0.53,4.47,6.84,8.19
9.328,1.52,5.60,8.99,10.70
9.338,1.89,6.83,10.62,12.76
9.348,2.25,7.45,11.42,13.81
9.358,3.01,7.22,11.62,14.01
9.368,3.94,6.81,11.82,14.20
9.378,4.88,6.62,11.95,14.51
9.388,5.71,6.45,11.76,14.57
9.398,6.17,6.01,11.09,14.04
9.408,6.31,5.13,10.06,12.93
9.418,6.09,4.08,8.83,11.47
9.428,5.35,3.11,7.42,9.66
9.439,4.40,1.95,5.61,7.40
9.449,3.47,0.67,3.61,5.05
9.459,2.67,-0.72,1.55,3.17
9.469,2.05,-2.05,-0.56,2.95
9.479,1.47,-3.21,-2.49,4.32
9.489,0.92,-4.10,-4.18,5.93
9.499,0.35,-5.08,-5.61,7.58
9.509,-0.30,-5.69,-6.87,8.93
9.519,-0.79,-6.10,-7.91,10.03
9.529,-1.40,-6.57,-8.58,10.90
9.539,-1.95,-6.99,-9.09,11.64
9.549,-2.44,-7.22,-9.43,12.12
9.559,-2.82,-7.29,-9.30,12.15
9.569,-3.07,-7.26,-8.98,11.95
9.580,-3.18,-7.21,-8.90,11.89
9.590,-3.24,-7.00,-8.57,11.54
9.600,-3.30,-6.50,-7.86,10.71
9.610,-3.35,-5.82,-7.07,9.76
9.620,-3.23,-4.90,-6.35,8.65
9.630,-2.98,-4.13,-5.38,7.41
9.640,-2.85,-3.32,-4.15,6.03
9.650,-2.70,-1.82,-2.75,4.26
9.660,-2.91,0.33,-1.25,3.18
9.670,-3.50,2.97,0.23,4.60
9.680,-3.96,5.19,1.52,6.70
9.690,-4.02,6.59,2.65,8.16
9.700,-3.95,7.83,3.67,9.51
9.710,-3.64,9.17,4.37,10.79
9.720,-2.61,9.68,5.07,11.23
9.731,-0.95,9.04,6.29,11.05
9.741,1.05,8.59,7.34,11.35
9.751,2.89,8.24,7.85,11.74
9.761,4.21,7.65,8.30,12.05
9.771,4.85,6.49,8.97,12.09
9.781,5.00,4.75,9.47,11.71
9.791,4.54,2.90,9.40,10.83
9.801,4.11,0.88,9.10,10.03
9.811,3.65,-0.99,7.94,8.79
9.821,3.31,-2.71,6.27,7.59
9.831,3.08,-3.83,4.88,6.92
9.841,2.68,-4.03,3.77,6.13
9.852,2.42,-4.00,2.12,5.13
9.862,2.22,-4.02,0.24,4.60
9.872,1.95,-4.19,-1.46,4.85
9.882,1.83,-4.68,-3.03,5.87
9.892,1.86,-5.23,-4.61,7.22
9.902,1.97,-5.95,-5.89,8.60
9.912,2.02,-7.24,-6.80,10.14
9.922,2.05,-7.81,-7.43,10.98
9.932,1.92,-8.48,-8.00,11.81
9.942,1.77,-9.05,-8.44,12.50
9.952,1.41,-10.20,-8.43,13.31
9.962,1.07,-9.91,-8.14,12.87
9.972,0.54,-8.68,-8.24,11.98
9.983,-0.13,-7.43,-8.30,11.14
9.993,-0.94,-5.79,-7.52,9.54
10.003,-1.73,-3.45,-6.43,7.50
10.013,-2.38,-0.99,-5.34,5.93
10.023,-2.88,1.63,-4.04,5.22
10.033,-3.12,3.93,-2.76,5.73
10.043,-2.87,5.11,-1.17,5.97
10.053,-2.56,6.04,0.44,6.58
10.063,-2.64,7.67,1.86,8.32
10.073,-2.44,9.23,2.69,9.92
10.083,-2.00,10.23,3.40,10.97
10.093,-1.25,10.43,4.69,11.50
10.103,-0.06,9.59,6.05,11.34
10.113,1.07,8.58,6.95,11.09
10.123,1.34,8.17,7.63,11.25
10.134,1.06,7.42,8.18,11.09
10.144,0.71,6.00,8.44,10.38
10.154,0.09,4.43,8.13,9.26
10.164,-0.35,2.53,7.14,7.58
10.174,-0.40,0.47,5.52,5.55
10.184,0.04,-1.58,3.78,4.10
10.194,0.63,-2.98,2.09,3.69
10.204,1.01,-3.81,0.41,3.97
10.214,1.41,-4.20,-1.29,4.61
10.224,1.63,-4.50,-2.71,5.50
10.234,1.57,-4.61,-3.92,6.25
10.244,1.31,-4.53,-4.83,6.75
10.254,0.96,-4.95,-5.47,7.44
10.265,0.93,-5.22,-5.98,7.99
10.275,0.89,-5.28,-6.42,8.36
10.285,0.66,-5.46,-6.84,8.77
10.295,0.40,-5.68,-7.21,9.19
10.305,0.28,-5.53,-7.67,9.46
10.315,0.22,-4.84,-7.64,9.05
10.325,0.04,-4.33,-7.15,8.36
10.335,-0.25,-4.05,-6.48,7.65
10.345,-0.83,-3.75,-6.12,7.23
10.355,0.10,-2.57,-6.09,6.61
10.365,-0.29,-1.29,-5.54,5.69
10.375,-1.53,0.46,-4.17,4.47
10.385,-2.78,3.54,-3.36,5.61
10.395,-4.30,5.57,-2.33,7.41
10.405,-4.96,5.48,-1.46,7.54
10.416,-4.07,5.23,-0.90,6.69
10.426,-2.25,4.52,0.43,5.07
10.436,-1.87,2.66,1.95,3.79
10.446,-2.07,0.28,4.05,4.55
10.456,-2.15,-0.89,2.47,3.39
10.466,-1.27,-0.69,7.07,7.22
10.476,-1.58,-0.01,10.77,10.88
10.486,-3.09,0.69,6.87,7.56
10.496,-3.75,0.54,5.12,6.37
10.506,-3.35,0.50,4.10,5.32
10.516,-2.23,0.51,2.53,3.41
10.526,-0.98,0.37,1.65,1.96
10.536,0.23,-0.33,1.48,1.54
10.547,1.36,-0.80,0.69,1.73
10.557,2.16,-1.15,0.78,2.57
10.567,2.38,-1.15,0.76,2.75
10.577,2.25,-0.69,0.56,2.42
10.587,1.93,-0.33,0.12,1.96
10.597,1.82,-0.44,0.07,1.88
10.607,1.99,-0.97,-0.05,2.21
10.617,1.68,-1.18,-1.21,2.39
10.627,1.99,-1.32,-0.89,2.54
10.637,1.41,-1.32,0.07,1.93
10.647,0.92,-0.91,0.94,1.60
10.657,0.60,-0.32,0.61,0.91
10.667,0.43,-0.33,0.49,0.73
10.677,0.58,-0.41,0.64,0.95
10.687,0.45,-0.49,0.31,0.73
10.698,0.42,-0.55,0.13,0.71
10.708,-0.20,-0.78,0.44,0.92
10.718,-0.58,-0.89,0.80,1.33
10.728,-0.90,-0.67,1.02,1.51
10.738,-1.40,-0.60,0.79,1.71
10.748,-1.63,-0.59,0.69,1.86
10.758,-1.38,-0.36,0.89,1.68
10.768,-0.87,-0.20,1.00,1.34
10.778,-0.41,-0.26,0.80,0.93
10.788,-0.18,-0.34,0.55,0.67
10.798,0.02,-0.40,0.37,0.55
10.808,0.29,-0.62,0.34,0.76
10.818,0.24,-0.72,0.06,0.76
10.829,0.33,-0.43,-0.08,0.54
10.839,0.51,-0.04,0.25,0.57
10.849,0.49,0.16,0.63,0.81
10.859,0.43,0.27,0.36,0.63
10.869,0.78,0.51,0.43,1.03
10.879,0.56,0.49,0.23,0.78
10.889,0.38,0.49,-0.18,0.65
10.899,0.25,0.63,0.01,0.68
10.909,0.30,0.81,0.07,0.87
10.919,0.40,0.72,-0.33,0.89
10.929,0.35,0.40,-0.55,0.76
10.939,0.36,0.27,-0.40,0.60
10.949,0.48,0.38,-0.23,0.65
10.960,0.57,0.42,-0.29,0.77
10.970,0.42,0.28,-0.53,0.73
10.980,-0.12,0.01,-1.08,1.08
10.990,-0.00,0.19,0.31,0.36
11.000,0.25,0.13,0.41,0.50
11.010,0.27,-0.05,-0.06,0.28
11.020,0.39,-0.26,-0.09,0.48
11.030,0.53,-0.33,0.20,0.65
11.040,0.61,-0.17,0.29,0.70
11.050,0.61,-0.13,0.25,0.67
11.060,0.48,-0.11,0.15,0.51
11.070,0.10,-0.03,-0.19,0.22
11.080,-0.10,-0.06,-0.42,0.44
11.091,-0.08,-0.12,0.11,0.18
11.101,-0.22,0.03,0.33,0.39
11.111,-0.28,0.23,0.34,0.50
