time,ax,ay,az,atotal
0.000,-0.05,0.09,0.04,0.11
0.010,-0.05,0.09,0.23,0.25
0.020,-0.01,0.04,0.07,0.08
0.030,0.05,-0.03,-0.22,0.23
0.040,0.06,-0.04,-0.23,0.24
0.051,0.01,-0.00,0.03,0.03
0.060,0.02,0.00,-0.03,0.04
0.071,0.01,-0.00,-0.06,0.06
0.081,-0.03,0.03,0.00,0.04
0.091,-0.03,0.05,0.06,0.08
0.101,-0.02,0.05,0.04,0.07
0.111,-0.03,0.05,0.07,0.09
0.121,-0.02,0.06,0.08,0.10
0.131,-0.05,0.08,-0.00,0.09
0.141,-0.04,0.04,-0.04,0.07
0.151,0.02,-0.01,-0.05,0.06
0.161,0.02,0.00,-0.05,0.05
0.171,0.01,0.01,-0.09,0.09
0.181,0.02,-0.01,-0.05,0.05
0.192,-0.00,0.01,0.01,0.02
0.202,-0.06,0.06,0.00,0.09
0.212,-0.08,0.10,0.02,0.13
0.222,-0.07,0.10,0.02,0.12
0.232,-0.07,0.09,-0.01,0.12
0.242,0.01,-0.02,0.00,0.03
0.252,0.07,-0.09,0.01,0.12
0.262,0.02,-0.02,-0.11,0.11
0.272,-0.03,0.02,-0.10,0.11
0.282,-0.05,0.05,-0.02,0.07
0.292,-0.04,0.06,0.06,0.09
0.302,-0.06,0.07,0.08,0.12
0.312,-0.04,0.07,0.04,0.09
0.322,-0.04,0.06,0.04,0.08
0.333,-0.02,0.04,-0.01,0.05
0.343,-0.02,0.03,0.02,0.04
0.353,-0.03,0.04,-0.01,0.05
0.363,-0.04,0.03,-0.04,0.06
0.373,-0.02,0.03,0.00,0.04
0.383,-0.02,0.03,-0.02,0.04
0.393,-0.02,0.03,-0.02,0.04
0.403,-0.03,0.04,-0.01,0.05
0.413,-0.03,0.04,0.04,0.06
0.423,-0.02,0.03,0.06,0.07
0.433,-0.02,0.02,-0.00,0.03
0.443,-0.02,0.04,0.03,0.05
0.453,-0.03,0.04,0.00,0.05
0.463,-0.03,0.03,-0.02,0.05
0.473,-0.03,0.04,0.01,0.05
0.484,-0.03,0.03,0.01,0.05
0.494,-0.02,0.02,-0.01,0.03
0.504,-0.01,0.02,-0.01,0.03
0.514,-0.02,0.03,-0.03,0.05
0.524,-0.02,0.01,-0.03,0.04
0.534,-0.02,0.03,-0.02,0.05
0.544,-0.03,0.05,-0.02,0.06
0.554,-0.03,0.04,0.02,0.05
0.564,-0.03,0.04,0.00,0.05
0.574,-0.03,0.02,0.03,0.05
0.584,-0.02,0.02,0.02,0.04
0.594,-0.02,0.03,0.02,0.04
0.604,-0.03,0.04,-0.00,0.05
0.615,-0.04,0.04,-0.00,0.05
0.625,-0.04,0.04,-0.00,0.06
0.635,-0.04,0.05,-0.03,0.07
0.645,-0.04,0.04,-0.03,0.06
0.655,-0.02,0.02,-0.02,0.04
0.665,-0.02,0.03,0.01,0.03
0.675,-0.02,0.03,0.03,0.05
0.685,-0.03,0.03,0.05,0.07
0.695,-0.03,0.04,0.02,0.05
0.705,-0.03,0.03,-0.00,0.04
0.715,-0.02,0.02,-0.01,0.03
0.725,-0.01,0.02,-0.01,0.03
0.735,-0.01,0.01,0.01,0.02
0.746,-0.01,0.03,-0.03,0.04
0.755,-0.03,0.02,-0.02,0.04
0.766,-0.02,0.01,-0.02,0.03
0.776,-0.03,0.02,-0.03,0.05
0.786,-0.06,0.06,-0.03,0.09
0.796,-0.05,0.05,-0.02,0.08
0.806,-0.03,0.05,0.00,0.06
0.816,-0.01,0.03,0.05,0.06
0.826,-0.01,0.01,0.07,0.07
0.836,-0.01,0.01,0.03,0.04
0.846,-0.01,0.01,0.01,0.02
0.856,-0.01,0.01,-0.03,0.03
0.866,-0.03,0.03,-0.04,0.06
0.876,-0.05,0.03,-0.03,0.07
0.886,-0.04,0.04,-0.01,0.06
0.897,-0.04,0.06,0.02,0.07
0.907,-0.03,0.05,0.05,0.08
0.917,-0.02,0.03,0.02,0.05
0.927,-0.02,0.03,0.01,0.04
0.937,-0.01,0.01,0.01,0.02
0.947,-0.00,0.01,-0.00,0.01
0.957,-0.01,0.01,-0.01,0.02
0.967,-0.02,0.01,-0.02,0.03
0.977,-0.03,0.02,-0.01,0.04
0.987,-0.03,0.04,0.00,0.05
0.997,-0.03,0.04,0.00,0.05
1.007,-0.04,0.04,0.02,0.07
1.018,-0.03,0.03,0.02,0.05
1.027,-0.02,0.02,0.02,0.03
1.038,-0.02,0.02,0.00,0.03
1.048,-0.01,0.02,0.00,0.03
1.058,-0.02,0.03,-0.01,0.03
1.068,-0.02,0.04,-0.01,0.05
1.078,-0.03,0.04,-0.03,0.06
1.088,-0.03,0.03,-0.02,0.05
1.098,-0.04,0.03,-0.03,0.05
1.108,-0.02,0.02,-0.00,0.03
1.118,-0.02,0.02,0.01,0.03
1.128,-0.01,0.02,0.03,0.04
1.138,-0.02,0.03,0.02,0.04
1.148,-0.02,0.04,0.02,0.05
1.158,-0.03,0.04,0.02,0.05
1.169,-0.03,0.04,0.00,0.05
1.179,-0.02,0.04,-0.02,0.04
1.189,-0.01,0.02,-0.02,0.03
1.199,-0.02,-0.00,-0.01,0.02
1.209,-0.01,0.01,0.01,0.02
1.219,-0.02,0.03,0.00,0.04
1.229,-0.03,0.04,0.02,0.06
1.239,-0.02,0.04,0.02,0.05
1.249,-0.03,0.04,0.02,0.05
1.259,-0.03,0.04,0.01,0.05
1.269,-0.02,0.04,0.02,0.04
1.279,-0.02,0.02,-0.02,0.04
1.289,-0.02,0.02,-0.03,0.04
1.300,-0.02,0.01,-0.04,0.05
1.310,-0.02,0.02,-0.02,0.03
1.320,-0.03,0.02,-0.03,0.04
1.330,-0.02,0.03,-0.00,0.04
1.340,-0.03,0.03,0.03,0.05
1.350,-0.04,0.04,0.04,0.07
1.360,-0.03,0.03,0.02,0.05
1.370,-0.03,0.04,0.02,0.05
1.380,-0.01,0.03,-0.00,0.03
1.390,-0.00,0.02,-0.02,0.03
1.400,-0.01,0.01,-0.02,0.02
1.410,-0.01,0.01,-0.03,0.03
1.420,-0.02,0.02,-0.01,0.03
1.430,-0.03,0.03,0.03,0.05
1.440,-0.02,0.02,0.05,0.06
1.451,-0.01,0.02,0.04,0.05
1.461,-0.01,0.04,0.02,0.04
1.471,-0.01,0.03,0.00,0.03
1.481,-0.02,0.02,-0.02,0.04
1.491,-0.02,0.03,-0.04,0.05
1.501,-0.02,0.03,-0.03,0.04
1.511,-0.02,0.03,-0.03,0.04
1.521,-0.03,0.01,-0.00,0.03
1.531,-0.03,0.03,0.00,0.04
1.541,-0.02,0.03,0.01,0.04
1.551,-0.03,0.03,0.01,0.05
1.562,-0.03,0.03,0.03,0.05
1.571,-0.03,0.05,0.03,0.06
1.582,-0.03,0.03,0.01,0.05
1.592,-0.01,0.01,0.01,0.02
1.602,-0.01,0.02,0.00,0.02
1.612,-0.01,0.02,-0.01,0.02
1.622,-0.01,0.02,0.00,0.02
1.632,-0.02,0.02,0.01,0.03
1.642,-0.01,0.02,-0.00,0.02
1.652,-0.01,0.02,-0.01,0.02
1.662,-0.01,0.02,0.02,0.03
1.672,-0.03,0.03,0.03,0.04
1.682,-0.02,0.03,0.02,0.04
1.692,-0.02,0.02,0.01,0.03
1.702,0.00,0.01,-0.00,0.01
1.713,-0.01,0.03,-0.03,0.04
1.723,-0.02,0.03,-0.02,0.04
1.733,-0.02,0.02,-0.01,0.04
1.743,-0.01,0.02,-0.01,0.02
1.753,0.01,0.00,-0.01,0.01
1.763,-0.00,0.00,-0.01,0.01
1.773,-0.00,-0.00,0.01,0.01
1.783,-0.02,0.02,-0.00,0.03
1.793,-0.02,0.03,0.01,0.04
1.803,-0.02,0.03,0.03,0.04
1.813,-0.02,0.04,0.03,0.06
1.823,-0.02,0.02,0.00,0.03
1.833,-0.01,0.02,0.00,0.02
1.843,0.01,0.01,-0.02,0.02
1.853,-0.02,0.01,-0.06,0.07
1.864,-0.03,0.03,-0.03,0.05
1.873,-0.03,0.03,-0.03,0.05
1.884,-0.03,0.04,-0.01,0.05
1.894,-0.02,0.03,0.04,0.06
1.904,-0.02,0.03,0.04,0.06
1.914,-0.02,0.03,0.01,0.03
1.924,0.00,0.02,0.01,0.02
1.934,-0.00,0.01,-0.00,0.01
1.944,-0.02,0.02,-0.02,0.04
1.954,-0.03,0.03,-0.01,0.05
1.964,-0.02,0.02,0.00,0.03
1.974,-0.02,0.03,0.01,0.03
1.984,-0.02,0.04,0.03,0.05
1.995,-0.01,0.03,0.01,0.03
2.005,-0.01,0.02,0.01,0.02
2.015,0.00,0.01,0.00,0.01
2.025,-0.01,0.01,-0.01,0.02
2.035,-0.01,0.02,-0.03,0.04
2.045,-0.02,0.01,-0.02,0.03
2.055,-0.02,0.02,-0.01,0.03
2.065,-0.01,0.01,-0.00,0.02
2.075,-0.01,0.02,0.01,0.03
2.085,-0.03,0.03,-0.01,0.04
2.095,-0.03,0.04,-0.00,0.05
2.105,-0.03,0.03,0.00,0.04
2.116,-0.03,0.03,0.02,0.05
2.125,-0.04,0.04,0.00,0.05
2.135,-0.02,0.01,0.00,0.02
2.146,-0.00,0.01,0.02,0.02
2.156,-0.01,0.01,0.00,0.01
2.166,-0.02,0.02,-0.02,0.03
2.176,-0.00,0.01,-0.01,0.02
2.186,-0.01,0.01,-0.01,0.02
2.196,-0.02,0.02,0.01,0.03
2.206,-0.03,0.03,0.01,0.04
2.216,-0.03,0.02,0.01,0.04
2.226,-0.01,0.01,0.01,0.02
2.236,-0.00,0.02,0.01,0.02
2.246,-0.00,0.01,0.00,0.01
2.256,-0.01,0.01,0.01,0.01
2.266,-0.01,0.01,-0.01,0.01
2.277,-0.01,0.01,-0.01,0.02
2.287,-0.02,0.02,-0.01,0.03
2.297,-0.03,0.02,-0.03,0.04
2.307,-0.02,0.02,-0.01,0.04
2.317,-0.02,0.03,-0.01,0.04
2.327,-0.01,0.03,0.01,0.03
2.337,-0.02,0.03,-0.00,0.03
2.347,-0.02,0.01,0.02,0.02
2.357,-0.02,0.01,0.03,0.04
2.367,-0.01,0.01,0.04,0.04
2.377,0.00,0.01,0.02,0.02
2.387,0.00,0.01,0.01,0.01
2.397,-0.00,0.00,-0.01,0.01
2.407,-0.00,0.01,-0.03,0.03
2.417,-0.00,0.02,-0.01,0.02
2.428,-0.02,0.02,-0.00,0.02
2.438,-0.01,0.01,0.00,0.01
2.448,-0.01,0.02,0.02,0.03
2.458,-0.01,0.02,0.01,0.02
2.468,-0.02,0.02,0.01,0.03
2.478,-0.01,0.02,-0.01,0.03
2.488,-0.01,0.02,-0.02,0.03
2.498,-0.01,0.01,-0.02,0.03
2.508,0.01,-0.01,0.01,0.02
2.518,-0.00,0.01,0.01,0.01
2.529,-0.00,0.01,0.02,0.02
2.538,-0.02,0.03,0.02,0.04
2.549,-0.03,0.04,-0.00,0.05
2.559,-0.02,0.04,0.01,0.05
2.569,-0.01,0.02,0.00,0.02
2.579,-0.00,0.00,0.00,0.01
2.589,-0.00,0.00,-0.00,0.00
2.599,-0.00,-0.00,-0.01,0.01
2.609,0.00,0.01,-0.00,0.01
2.619,-0.02,0.01,-0.01,0.02
2.629,-0.03,0.02,-0.00,0.03
2.639,-0.03,0.03,-0.03,0.05
2.649,-0.03,0.02,-0.00,0.04
2.659,-0.02,0.02,-0.00,0.02
2.669,-0.02,0.03,-0.01,0.04
2.679,-0.02,0.02,0.00,0.03
2.690,-0.01,0.01,-0.01,0.01
2.700,0.00,-0.00,-0.01,0.01
2.710,0.00,-0.00,-0.00,0.00
2.720,-0.01,0.00,-0.01,0.01
2.730,-0.02,0.01,-0.01,0.02
2.740,-0.01,0.02,0.02,0.03
2.750,-0.03,0.02,0.00,0.03
2.760,-0.02,0.01,0.01,0.02
2.770,-0.01,0.00,0.01,0.01
2.780,-0.02,0.01,0.01,0.02
2.790,-0.02,0.01,0.00,0.02
2.800,-0.01,0.01,0.01,0.02
2.810,-0.01,0.01,-0.01,0.02
2.820,-0.01,0.02,-0.00,0.02
2.831,-0.01,0.02,-0.01,0.02
2.841,-0.02,0.02,-0.01,0.03
2.851,-0.02,0.02,-0.01,0.03
2.861,-0.03,0.02,-0.02,0.04
2.871,-0.01,0.01,0.00,0.01
2.881,0.00,-0.00,0.02,0.02
2.891,-0.02,0.01,-0.02,0.03
2.901,-0.01,0.01,0.02,0.03
2.911,-0.01,0.02,0.03,0.04
2.921,-0.02,0.03,0.02,0.04
2.931,-0.01,0.02,0.02,0.03
2.941,-0.01,0.02,0.01,0.02
2.951,-0.01,0.01,0.02,0.02
2.962,-0.00,0.00,0.00,0.01
2.971,0.01,0.00,0.03,0.03
2.982,0.02,-0.00,0.03,0.03
2.992,0.00,0.01,0.02,0.02
3.002,-0.00,0.01,0.00,0.01
3.012,-0.01,0.02,-0.01,0.02
3.022,-0.01,0.02,-0.02,0.03
3.032,-0.02,0.02,-0.05,0.05
3.042,-0.00,0.01,-0.02,0.03
3.052,-0.01,0.01,-0.02,0.02
3.062,-0.00,0.01,0.00,0.01
3.072,0.01,-0.00,0.03,0.03
3.082,0.00,0.01,0.01,0.02
3.092,-0.00,0.01,0.00,0.01
3.102,-0.01,0.01,-0.01,0.01
3.113,-0.01,0.01,-0.02,0.02
3.123,-0.01,0.01,-0.02,0.02
3.133,0.00,0.01,0.00,0.01
3.143,-0.02,0.01,-0.02,0.03
3.153,-0.02,0.02,0.02,0.04
3.163,0.01,0.01,0.01,0.02
3.173,-0.01,0.01,0.05,0.05
3.183,-0.00,0.02,0.04,0.04
3.193,-0.00,0.01,0.02,0.02
3.203,-0.00,0.01,0.00,0.01
3.213,-0.00,0.01,-0.03,0.04
3.223,-0.01,0.01,-0.03,0.04
3.234,-0.01,0.01,-0.03,0.03
3.244,-0.00,0.02,0.00,0.02
3.254,-0.01,0.02,0.00,0.02
3.264,-0.01,0.02,0.01,0.03
3.274,-0.01,0.02,-0.01,0.03
3.284,-0.03,0.03,-0.01,0.04
3.294,-0.02,0.02,-0.02,0.03
3.304,0.01,0.01,-0.01,0.02
3.314,0.00,0.01,0.03,0.03
3.324,-0.01,0.01,0.01,0.02
3.334,-0.01,0.01,0.02,0.02
3.344,-0.01,0.01,0.02,0.02
3.354,-0.01,0.01,-0.01,0.01
3.364,0.00,-0.01,0.00,0.01
3.374,0.01,0.00,-0.00,0.01
3.385,0.00,0.01,-0.00,0.01
3.395,-0.00,0.01,0.00,0.01
3.405,-0.02,0.03,0.00,0.03
3.415,-0.01,0.03,0.04,0.05
3.425,0.00,0.02,0.02,0.03
3.435,-0.00,0.01,0.01,0.02
3.445,-0.00,0.01,-0.00,0.01
3.455,-0.01,0.02,-0.03,0.04
3.465,-0.02,0.01,-0.04,0.04
3.475,-0.01,0.01,-0.03,0.03
3.485,-0.01,0.01,-0.00,0.01
3.495,-0.02,0.02,0.02,0.03
3.505,-0.03,0.02,0.02,0.04
3.515,-0.02,0.02,0.03,0.04
3.526,-0.01,0.02,0.01,0.03
3.535,-0.00,0.02,0.00,0.02
3.546,-0.00,0.01,0.01,0.02
3.556,0.02,0.01,-0.01,0.02
3.566,0.00,0.00,-0.03,0.03
3.576,-0.00,-0.01,-0.01,0.01
3.586,-0.01,0.01,-0.01,0.01
3.596,-0.01,0.00,-0.02,0.02
3.606,-0.01,0.01,0.01,0.01
3.616,-0.01,0.01,0.02,0.02
3.626,-0.02,0.03,0.01,0.03
3.636,-0.02,0.03,0.01,0.04
3.646,-0.01,0.02,-0.01,0.02
3.657,-0.01,0.02,-0.02,0.03
3.667,-0.01,0.01,-0.01,0.02
3.677,0.00,-0.00,-0.01,0.01
3.687,-0.01,0.01,-0.00,0.01
3.697,-0.02,0.03,-0.01,0.04
3.707,-0.02,0.02,-0.00,0.03
3.717,-0.02,0.04,0.00,0.04
3.727,-0.03,0.02,-0.01,0.04
3.737,-0.00,0.01,-0.01,0.01
3.747,0.00,-0.01,-0.01,0.01
3.757,-0.00,-0.01,-0.00,0.01
3.767,-0.01,0.00,0.04,0.04
3.778,-0.02,0.00,0.05,0.05
3.787,-0.02,0.01,0.03,0.04
3.798,-0.01,0.02,0.04,0.05
3.808,-0.02,0.03,0.02,0.04
3.818,-0.03,0.03,-0.00,0.04
3.828,-0.00,0.02,-0.01,0.02
3.838,-0.00,0.01,0.01,0.01
3.848,0.01,-0.00,-0.02,0.02
3.858,0.01,-0.00,-0.01,0.02
3.868,-0.01,0.00,-0.04,0.04
3.878,0.00,0.01,-0.01,0.01
3.888,-0.00,0.01,0.01,0.01
3.898,-0.01,0.02,-0.01,0.02
3.908,-0.01,0.02,0.02,0.03
3.919,-0.02,0.02,0.00,0.03
3.928,-0.01,0.02,-0.01,0.02
3.939,-0.00,0.01,0.02,0.02
3.949,-0.01,0.01,0.01,0.02
3.959,-0.00,0.01,0.02,0.02
3.969,-0.01,0.01,0.03,0.03
3.979,-0.02,0.02,-0.01,0.03
3.989,-0.01,0.01,0.02,0.02
3.999,-0.00,-0.01,-0.00,0.01
4.009,-0.00,-0.00,-0.03,0.03
4.019,0.01,-0.01,-0.01,0.02
4.029,0.01,-0.00,-0.00,0.01
4.039,-0.02,0.01,0.00,0.02
4.049,-0.02,0.02,0.02,0.04
4.059,-0.02,0.03,0.03,0.04
4.069,-0.02,0.02,0.02,0.03
4.080,-0.01,0.02,0.01,0.03
4.090,-0.01,0.02,-0.01,0.03
4.100,0.01,-0.00,-0.02,0.02
4.110,-0.00,-0.00,-0.04,0.04
4.120,-0.00,0.01,-0.03,0.03
4.130,-0.01,0.01,-0.01,0.02
4.140,-0.02,0.02,0.03,0.04
4.150,-0.01,0.02,0.04,0.04
4.160,-0.01,0.01,0.04,0.04
4.170,-0.00,0.01,0.02,0.02
4.180,0.00,0.00,-0.01,0.01
4.190,-0.01,0.01,-0.03,0.03
4.201,-0.00,0.00,-0.04,0.04
4.211,-0.01,-0.00,-0.00,0.01
4.221,-0.02,0.01,-0.01,0.02
4.231,-0.02,0.02,-0.01,0.02
4.241,-0.02,0.01,0.01,0.02
4.251,-0.01,0.01,0.01,0.02
4.261,-0.02,0.03,0.00,0.03
4.271,-0.02,0.02,0.03,0.04
4.281,-0.01,0.01,0.04,0.04
4.291,-0.01,0.01,0.00,0.02
4.301,-0.01,0.01,-0.01,0.02
4.311,-0.01,0.01,-0.04,0.04
4.321,-0.02,0.01,-0.05,0.05
4.331,-0.02,0.00,-0.01,0.02
4.341,-0.02,0.00,0.02,0.03
4.352,-0.01,0.01,0.03,0.03
4.362,0.00,0.01,0.06,0.06
4.372,0.00,0.01,0.04,0.04
4.382,0.00,0.02,0.02,0.03
4.392,-0.00,0.02,0.01,0.02
4.402,-0.01,0.01,-0.02,0.02
4.412,-0.01,0.00,-0.00,0.01
4.422,0.00,0.00,-0.03,0.03
4.432,-0.01,0.01,-0.03,0.03
4.442,0.00,0.00,-0.02,0.02
4.452,0.00,0.01,-0.02,0.02
4.462,-0.00,0.02,0.00,0.02
4.472,-0.01,0.02,0.02,0.03
4.482,-0.03,0.03,0.04,0.05
4.493,-0.03,0.03,0.02,0.04
4.503,-0.00,0.01,0.00,0.01
4.513,-0.00,0.00,-0.02,0.02
4.523,0.01,-0.00,-0.04,0.04
4.533,0.00,-0.00,-0.03,0.03
4.543,-0.00,0.00,-0.02,0.02
4.553,-0.02,0.02,-0.01,0.03
4.563,-0.01,0.03,0.01,0.03
4.573,-0.02,0.02,0.03,0.04
4.583,-0.01,0.02,-0.00,0.02
4.593,-0.01,0.01,0.00,0.01
4.603,0.01,-0.00,0.01,0.02
4.613,0.01,0.00,0.01,0.01
4.624,0.01,0.01,-0.01,0.02
4.633,-0.01,0.02,-0.02,0.03
4.644,-0.01,0.01,-0.02,0.03
4.654,-0.02,0.01,0.00,0.02
4.664,-0.02,0.02,0.01,0.03
4.674,-0.02,0.01,0.02,0.03
4.684,-0.01,0.02,0.03,0.04
4.694,0.00,0.01,-0.01,0.01
4.704,-0.01,0.01,-0.01,0.01
4.714,0.01,0.00,-0.01,0.01
4.724,-0.01,0.01,-0.02,0.02
4.734,-0.02,0.01,0.01,0.02
4.744,-0.01,0.00,0.03,0.03
4.755,-0.02,0.01,0.01,0.02
4.765,-0.01,0.02,-0.01,0.03
4.775,0.00,0.01,-0.01,0.02
4.785,-0.01,0.01,-0.00,0.02
4.795,-0.01,0.01,0.01,0.02
4.805,-0.01,0.00,-0.00,0.01
4.815,-0.00,0.01,0.02,0.02
4.825,-0.01,0.00,0.02,0.02
4.835,-0.01,0.01,-0.00,0.01
4.845,-0.01,0.01,-0.01,0.01
4.855,-0.01,0.02,-0.02,0.03
4.865,-0.01,0.01,-0.03,0.04
4.875,-0.01,0.01,-0.01,0.02
4.885,0.00,0.01,0.02,0.02
4.895,0.00,0.01,0.04,0.04
4.906,-0.02,0.02,0.03,0.04
4.916,-0.00,0.02,0.03,0.03
4.926,-0.01,0.01,-0.02,0.03
4.936,-0.01,0.01,-0.05,0.05
4.946,-0.01,0.00,-0.04,0.04
4.956,0.01,-0.02,-0.01,0.02
4.966,-0.00,0.00,0.04,0.04
4.976,-0.01,0.02,0.02,0.03
4.986,-0.02,0.02,0.04,0.05
4.996,-0.03,0.04,0.01,0.05
5.006,-0.02,0.02,-0.00,0.03
5.016,-0.02,0.01,-0.01,0.02
5.026,-0.00,-0.00,-0.02,0.02
5.037,0.01,-0.01,-0.03,0.04
5.047,-0.00,-0.01,-0.02,0.03
5.057,-0.00,0.01,0.01,0.02
5.067,-0.01,0.01,0.01,0.02
5.077,-0.02,0.02,0.01,0.02
5.087,-0.01,0.01,0.02,0.03
5.097,-0.02,0.01,0.01,0.02
5.107,-0.01,0.01,0.01,0.02
5.117,0.00,0.01,0.02,0.02
5.127,0.00,0.01,0.01,0.02
5.137,-0.00,0.01,0.00,0.01
5.147,-0.01,0.02,-0.02,0.03
5.157,-0.01,0.00,-0.01,0.02
5.168,-0.02,0.01,-0.01,0.03
5.178,-0.01,0.01,-0.01,0.01
5.188,-0.00,-0.00,0.02,0.02
5.198,-0.01,0.02,0.01,0.02
5.208,-0.01,0.03,-0.01,0.03
5.218,-0.01,0.02,-0.00,0.02
5.228,-0.01,0.01,-0.01,0.02
5.238,-0.01,0.00,-0.04,0.04
5.248,-0.01,0.00,-0.03,0.03
5.258,0.00,-0.01,-0.01,0.02
5.268,-0.01,-0.00,-0.04,0.04
5.278,-0.03,0.02,0.01,0.04
5.288,-0.01,0.01,0.04,0.04
5.298,-0.00,0.01,0.05,0.05
5.309,-0.01,0.01,0.04,0.04
5.319,-0.01,0.01,0.02,0.02
5.328,-0.01,0.02,0.02,0.03
5.339,-0.02,0.02,-0.01,0.03
5.349,-0.01,0.01,0.02,0.03
5.359,-0.01,0.02,0.01,0.03
5.369,-0.02,0.02,-0.00,0.03
5.379,-0.01,0.01,-0.00,0.02
5.389,-0.00,0.00,-0.03,0.03
5.399,-0.00,-0.01,-0.02,0.02
5.409,0.00,-0.00,-0.00,0.01
5.419,0.00,0.01,0.01,0.01
5.429,0.00,-0.00,0.03,0.03
5.439,0.00,-0.01,0.04,0.04
5.450,0.00,0.01,0.03,0.03
5.460,-0.01,0.01,-0.00,0.01
5.470,-0.01,0.01,-0.00,0.02
5.480,-0.01,0.01,0.01,0.02
5.490,-0.02,0.02,-0.01,0.03
5.500,-0.01,0.02,0.00,0.02
5.510,-0.02,0.02,0.02,0.03
5.520,-0.01,0.02,0.01,0.02
5.530,-0.00,0.01,0.00,0.01
5.540,0.00,0.00,-0.02,0.02
5.550,0.00,0.00,-0.02,0.02
5.560,-0.01,0.01,-0.03,0.04
5.570,-0.01,0.01,-0.03,0.03
5.580,-0.01,0.02,0.00,0.02
5.590,-0.01,0.01,0.01,0.02
5.601,-0.00,0.01,0.03,0.03
5.611,-0.01,0.01,0.03,0.03
5.621,-0.02,0.01,0.01,0.02
5.631,-0.00,0.00,-0.00,0.01
5.641,0.00,0.00,0.00,0.01
5.651,0.00,0.00,-0.01,0.01
5.661,0.00,0.01,0.00,0.01
5.671,0.01,0.01,-0.01,0.02
5.681,-0.01,0.02,-0.01,0.03
5.691,-0.01,0.01,0.01,0.02
5.701,-0.01,0.01,-0.00,0.02
5.711,-0.00,0.00,0.03,0.03
5.721,-0.01,0.00,-0.01,0.01
5.732,-0.02,0.01,-0.01,0.03
5.742,-0.01,0.02,0.01,0.03
5.751,-0.02,0.02,0.00,0.03
5.762,-0.01,0.02,0.01,0.02
5.772,0.01,0.01,0.01,0.02
5.782,0.01,0.01,0.03,0.03
5.792,-0.01,0.02,-0.00,0.03
5.802,-0.00,0.01,-0.00,0.01
5.812,-0.01,0.01,0.01,0.02
5.822,-0.01,0.01,-0.03,0.03
5.832,0.00,0.01,-0.03,0.03
5.842,-0.01,0.01,-0.03,0.04
5.852,-0.00,0.00,-0.05,0.05
5.863,-0.02,0.03,0.00,0.04
5.873,-0.01,0.02,0.07,0.07
5.883,-0.00,-0.01,0.06,0.06
5.893,-0.02,0.03,0.04,0.05
5.903,0.00,0.00,0.01,0.02
5.913,0.00,0.01,-0.01,0.01
5.923,-0.02,0.03,-0.04,0.05
5.933,-0.02,0.02,-0.06,0.06
5.943,-0.01,0.01,-0.02,0.02
5.953,-0.03,0.02,-0.00,0.03
5.963,-0.02,0.01,0.02,0.03
5.973,-0.01,0.00,0.02,0.02
5.983,0.01,0.01,0.02,0.03
5.993,0.00,-0.00,0.03,0.03
6.003,0.01,0.00,0.01,0.01
6.014,0.01,0.00,0.01,0.02
6.024,-0.01,0.01,0.01,0.01
6.034,-0.01,0.01,-0.00,0.02
6.044,-0.02,0.01,-0.02,0.03
6.054,-0.01,0.01,-0.02,0.02
6.064,-0.03,0.02,-0.02,0.04
6.074,-0.01,0.01,0.01,0.02
6.084,-0.01,0.01,0.03,0.03
6.094,0.00,-0.00,0.02,0.02
6.104,0.01,0.01,0.03,0.03
6.114,0.02,-0.00,0.02,0.03
6.124,0.00,0.01,-0.00,0.01
6.134,-0.01,0.01,0.00,0.02
6.145,-0.02,0.02,-0.00,0.03
6.155,-0.02,0.03,0.00,0.03
6.165,-0.01,0.02,0.02,0.03
6.175,-0.01,0.01,0.01,0.02
6.185,-0.00,0.01,0.00,0.02
6.195,-0.00,0.00,-0.01,0.01
6.205,0.01,-0.00,-0.02,0.03
6.215,0.01,-0.01,-0.02,0.02
6.225,0.01,-0.00,-0.01,0.01
6.235,0.00,0.01,-0.02,0.02
6.245,-0.02,0.02,-0.03,0.04
6.255,-0.03,0.02,-0.00,0.04
6.265,-0.02,0.02,0.01,0.04
6.275,-0.02,0.02,0.00,0.03
6.285,-0.02,0.02,0.02,0.03
6.296,-0.01,0.01,0.01,0.02
6.306,-0.01,0.00,0.02,0.02
6.316,-0.00,0.01,0.02,0.02
6.326,-0.00,0.01,0.01,0.01
6.336,-0.01,0.01,0.01,0.02
6.346,-0.00,0.01,-0.00,0.01
6.356,-0.00,0.01,-0.02,0.02
6.366,-0.00,0.01,-0.00,0.01
6.376,-0.01,0.00,0.00,0.01
6.386,-0.01,0.01,0.02,0.02
6.397,-0.01,0.01,0.03,0.03
6.406,-0.00,0.01,0.02,0.02
6.417,-0.02,0.01,0.00,0.02
6.427,-0.00,0.01,-0.01,0.02
6.437,-0.00,0.00,-0.00,0.00
6.447,-0.00,-0.00,0.02,0.02
6.457,-0.01,0.01,0.01,0.01
6.467,-0.01,0.02,0.02,0.02
6.477,-0.02,0.01,0.01,0.02
6.487,-0.02,0.01,0.01,0.03
6.497,-0.01,0.03,-0.00,0.03
6.507,-0.01,0.02,-0.02,0.03
6.517,-0.01,0.01,-0.02,0.02
6.527,-0.01,0.01,-0.02,0.02
6.537,-0.01,0.01,-0.01,0.02
6.547,-0.01,0.01,-0.00,0.01
6.558,0.01,0.00,0.02,0.02
6.568,0.00,0.01,0.01,0.02
6.578,-0.01,0.02,0.01,0.02
6.588,0.00,0.01,-0.00,0.01
6.598,-0.01,0.01,-0.01,0.02
6.608,-0.01,0.00,-0.02,0.02
6.618,-0.01,0.00,-0.03,0.03
6.628,-0.01,0.00,0.02,0.02
6.638,0.01,0.01,0.05,0.05
6.648,-0.02,0.02,0.02,0.03
6.658,-0.00,0.01,-0.01,0.01
6.668,0.01,0.00,0.00,0.01
6.678,-0.00,0.00,-0.01,0.01
6.688,-0.01,0.01,-0.02,0.03
6.699,-0.01,0.01,-0.01,0.01
6.709,-0.01,0.01,0.03,0.03
6.719,-0.01,0.02,0.02,0.03
6.729,-0.01,0.02,-0.00,0.02
6.739,-0.01,0.01,0.00,0.01
6.749,0.00,0.01,0.01,0.01
6.759,0.00,0.00,-0.01,0.01
6.769,-0.00,0.01,0.01,0.02
6.779,-0.01,0.02,-0.03,0.04
6.789,-0.01,0.01,-0.05,0.05
6.799,-0.02,0.01,-0.03,0.04
6.809,-0.01,0.01,-0.01,0.02
6.819,0.00,0.01,0.02,0.02
6.829,-0.00,0.01,0.01,0.02
6.840,-0.00,0.01,0.04,0.04
6.850,-0.02,0.02,0.04,0.04
6.860,-0.01,0.03,0.02,0.03
6.870,-0.01,0.02,0.01,0.02
6.880,0.00,-0.01,-0.01,0.01
6.890,0.01,-0.01,-0.01,0.02
6.900,-0.00,-0.00,-0.01,0.01
6.910,0.01,0.00,0.02,0.02
6.920,0.00,0.01,0.04,0.04
6.930,-0.01,0.02,0.02,0.03
6.940,-0.01,0.02,0.01,0.02
6.950,-0.00,0.01,0.00,0.01
6.960,-0.01,0.02,-0.01,0.02
6.971,-0.01,0.02,-0.02,0.03
6.981,-0.00,0.02,-0.00,0.02
6.991,-0.01,0.01,-0.01,0.02
7.001,-0.00,0.01,0.02,0.02
7.011,-0.00,0.01,-0.00,0.01
7.021,0.00,0.01,-0.00,0.01
7.031,-0.00,-0.00,0.02,0.02
7.041,-0.00,0.01,0.03,0.03
7.051,-0.01,0.01,-0.00,0.02
7.061,-0.01,0.01,-0.01,0.02
7.071,-0.01,0.01,-0.01,0.02
7.081,-0.01,0.01,-0.01,0.01
7.091,0.01,0.00,0.00,0.01
7.102,0.01,0.00,0.01,0.01
7.112,0.01,-0.01,0.00,0.02
7.122,-0.01,-0.00,-0.01,0.02
7.132,-0.00,0.01,-0.01,0.01
7.142,0.01,-0.00,0.02,0.02
7.152,-0.02,0.02,0.01,0.03
7.162,-0.03,0.03,-0.01,0.05
7.172,-0.00,0.01,-0.00,0.01
7.182,0.00,0.01,-0.00,0.01
7.192,-0.00,0.01,0.00,0.01
7.202,-0.02,0.02,-0.02,0.03
7.212,-0.01,-0.00,0.01,0.01
7.222,-0.00,-0.00,0.00,0.01
7.232,0.01,0.00,0.02,0.02
7.242,-0.01,0.01,0.02,0.02
7.252,0.00,0.01,-0.02,0.02
7.263,0.00,0.00,-0.01,0.01
7.273,-0.01,0.02,-0.01,0.02
7.283,-0.03,0.02,-0.03,0.05
7.293,-0.02,0.01,-0.00,0.03
7.303,-0.01,0.01,0.04,0.05
7.313,-0.02,0.02,0.03,0.04
7.323,-0.00,0.01,0.05,0.05
7.333,-0.01,0.01,0.00,0.01
7.343,0.00,-0.00,-0.00,0.01
7.353,0.01,-0.01,-0.04,0.04
7.363,0.01,-0.01,-0.05,0.05
7.373,-0.01,0.01,-0.03,0.03
7.383,-0.01,0.00,-0.02,0.03
7.394,-0.01,0.00,0.02,0.02
7.404,-0.01,0.02,0.01,0.03
7.414,-0.01,0.02,0.02,0.03
7.424,-0.02,0.01,0.03,0.04
7.434,0.01,0.00,0.02,0.02
7.444,-0.01,0.00,-0.01,0.01
7.454,-0.00,0.00,0.01,0.01
7.464,-0.00,0.01,-0.01,0.01
7.474,-0.00,-0.00,-0.02,0.02
7.484,-0.00,0.00,0.00,0.00
7.494,-0.00,0.01,-0.00,0.01
7.504,-0.00,0.01,0.00,0.01
7.514,-0.01,0.01,-0.00,0.01
7.525,0.00,0.01,0.02,0.02
7.534,-0.01,0.00,0.02,0.02
7.545,-0.01,0.01,0.03,0.03
7.555,-0.01,0.01,0.03,0.03
7.565,-0.00,0.01,0.03,0.03
7.575,-0.01,0.02,0.03,0.04
7.585,-0.01,0.02,-0.01,0.02
7.595,-0.01,0.02,-0.02,0.03
7.605,0.00,0.01,-0.03,0.03
7.615,0.01,-0.00,-0.03,0.03
7.625,-0.00,0.00,-0.02,0.02
7.635,-0.01,0.01,-0.00,0.01
7.645,-0.00,0.02,0.02,0.03
7.655,0.01,0.00,0.02,0.02
7.666,-0.01,0.02,0.01,0.03
7.676,-0.01,0.02,0.01,0.03
7.686,-0.00,0.01,-0.01,0.02
7.696,-0.00,0.00,-0.01,0.01
7.706,0.01,0.00,-0.01,0.01
7.716,-0.01,0.01,0.00,0.01
7.726,-0.01,0.01,0.01,0.02
7.736,-0.00,0.01,0.00,0.01
7.746,-0.01,0.01,0.01,0.02
7.756,-0.02,0.01,0.02,0.03
7.766,-0.01,0.02,-0.00,0.02
7.776,-0.01,0.02,-0.01,0.02
7.786,-0.01,0.01,-0.00,0.01
7.797,-0.00,0.01,-0.00,0.01
7.807,-0.00,0.02,0.00,0.02
7.817,-0.00,0.01,-0.01,0.02
7.827,-0.00,0.00,-0.05,0.05
7.837,-0.00,-0.01,-0.01,0.01
7.847,-0.01,0.01,-0.02,0.02
7.857,-0.01,0.01,-0.02,0.02
7.867,-0.01,0.01,0.01,0.02
7.877,-0.01,0.02,0.02,0.03
7.887,-0.00,0.00,0.04,0.04
7.897,0.01,-0.01,0.04,0.04
7.907,0.00,0.01,0.01,0.01
7.917,-0.00,-0.00,-0.02,0.02
7.928,-0.01,0.02,-0.01,0.03
7.937,-0.01,0.01,-0.02,0.02
7.948,-0.01,0.01,-0.02,0.03
7.958,-0.01,0.02,-0.01,0.03
7.968,0.00,0.02,0.00,0.02
7.978,-0.00,0.01,0.01,0.01
7.988,-0.00,0.01,0.00,0.02
7.998,-0.02,0.02,-0.01,0.03
8.008,-0.02,0.01,-0.03,0.04
8.018,-0.00,0.00,-0.01,0.01
8.028,0.00,0.00,-0.02,0.02
8.038,0.01,-0.01,-0.04,0.04
8.048,0.01,-0.01,-0.03,0.03
8.058,0.00,0.00,-0.01,0.01
8.068,0.00,0.00,0.01,0.01
8.079,-0.00,0.01,0.02,0.02
8.089,-0.02,0.02,0.02,0.04
8.099,-0.01,0.01,0.05,0.05
8.109,-0.01,0.02,0.01,0.02
8.119,-0.01,0.02,-0.02,0.03
8.129,0.01,0.00,-0.01,0.02
8.139,0.01,0.00,-0.01,0.02
8.149,-0.01,0.00,-0.02,0.02
8.159,-0.00,-0.00,-0.03,0.03
8.169,-0.01,0.01,-0.00,0.01
8.179,-0.01,0.01,-0.01,0.02
8.189,-0.01,0.02,-0.00,0.02
8.200,-0.00,0.01,0.02,0.02
8.209,0.01,0.00,0.04,0.04
8.220,0.00,0.01,0.04,0.04
8.230,-0.00,0.01,0.01,0.02
8.240,0.01,0.01,-0.01,0.02
8.250,0.01,0.00,-0.00,0.01
8.260,-0.01,0.01,-0.04,0.04
8.270,-0.01,0.00,-0.04,0.04
8.280,-0.00,0.00,-0.01,0.01
8.290,-0.01,0.02,-0.00,0.02
8.300,-0.01,0.02,0.01,0.02
8.310,-0.01,0.03,0.02,0.04
8.320,-0.01,0.02,0.00,0.02
8.330,0.01,0.00,0.00,0.01
8.340,0.00,0.01,-0.03,0.03
8.350,-0.00,-0.01,-0.04,0.04
8.361,-0.00,-0.00,-0.03,0.03
8.371,0.01,-0.00,-0.01,0.01
8.381,0.00,-0.00,-0.00,0.01
8.391,-0.01,0.01,0.02,0.02
8.401,-0.02,0.01,0.02,0.03
8.411,-0.02,0.01,-0.00,0.02
8.421,0.00,0.01,0.01,0.01
8.431,0.00,0.00,0.01,0.02
8.441,-0.01,0.01,-0.01,0.02
8.451,-0.01,0.01,-0.01,0.02
8.461,0.00,0.00,-0.01,0.01
8.471,-0.00,0.01,-0.00,0.01
8.481,-0.02,0.01,-0.05,0.05
8.491,-0.02,0.01,-0.02,0.02
8.501,0.00,0.01,0.01,0.01
8.512,-0.02,0.02,-0.03,0.04
8.522,-0.03,0.03,-0.02,0.05
8.532,-0.03,0.03,-0.01,0.04
8.542,-0.00,0.00,-0.02,0.02
8.552,-0.01,0.01,0.00,0.01
8.562,-0.00,-0.00,0.01,0.02
8.572,0.01,-0.02,0.02,0.03
8.582,-0.01,-0.01,0.02,0.02
8.592,-0.01,0.01,-0.01,0.02
8.602,-0.02,0.02,0.01,0.03
8.613,-0.02,0.02,0.01,0.03
8.622,-0.01,0.01,0.02,0.03
8.633,-0.00,0.01,0.03,0.03
8.643,0.00,0.01,-0.01,0.01
8.653,-0.00,-0.00,-0.00,0.01
8.663,-0.00,-0.00,0.01,0.01
8.673,-0.01,0.00,0.01,0.02
8.683,-0.02,-0.00,-0.01,0.02
8.693,-0.00,0.00,0.00,0.01
8.703,-0.01,0.00,0.00,0.01
8.713,-0.01,0.01,0.01,0.02
8.723,-0.01,0.02,0.02,0.03
8.733,-0.01,0.02,0.04,0.05
8.743,-0.01,0.01,0.03,0.03
8.754,-0.02,0.01,0.01,0.02
8.763,-0.02,0.01,-0.02,0.02
8.774,0.00,0.00,-0.03,0.03
8.784,0.01,-0.00,-0.04,0.04
8.794,0.01,-0.00,-0.01,0.01
8.804,0.00,0.01,0.01,0.02
8.814,-0.00,0.01,0.04,0.04
8.824,-0.00,0.01,0.03,0.03
8.834,-0.01,0.02,0.02,0.03
8.844,-0.01,0.01,-0.01,0.02
8.854,-0.00,0.01,-0.02,0.02
8.864,-0.00,0.01,-0.03,0.03
8.874,0.01,0.00,-0.03,0.03
8.884,0.01,-0.00,0.01,0.02
8.895,0.01,0.01,0.00,0.01
8.905,-0.00,0.01,-0.01,0.01
8.914,-0.01,0.01,-0.01,0.01
8.925,-0.01,0.01,0.01,0.02
8.935,-0.02,0.01,-0.00,0.02
8.945,-0.01,0.01,-0.01,0.02
8.955,-0.00,0.01,-0.01,0.01
8.965,-0.01,0.01,-0.00,0.01
8.975,-0.01,0.01,0.00,0.01
8.985,0.01,-0.00,0.01,0.01
8.995,0.00,0.01,0.03,0.03
9.005,0.00,-0.01,0.03,0.04
9.015,-0.00,-0.00,0.02,0.02
9.025,0.00,0.01,0.01,0.01
9.036,0.01,0.00,-0.00,0.01
9.046,0.00,0.01,-0.00,0.01
9.056,-0.01,0.03,-0.01,0.03
9.066,-0.00,0.02,0.02,0.02
9.076,-0.01,0.01,0.01,0.02
9.086,-0.02,0.01,0.01,0.03
9.096,-0.01,0.01,-0.02,0.02
9.106,-0.01,0.01,-0.03,0.03
9.116,-0.01,0.00,-0.01,0.02
9.126,-0.00,0.00,-0.00,0.00
9.136,-0.01,0.01,0.02,0.02
9.146,-0.02,0.02,0.03,0.04
9.156,-0.02,0.02,0.01,0.03
9.166,-0.02,0.01,0.02,0.03
9.176,-0.01,-0.00,0.02,0.02
9.187,-0.00,0.01,0.01,0.01
9.197,0.00,0.00,0.02,0.02
9.207,0.02,-0.01,-0.00,0.02
9.217,0.01,-0.00,0.01,0.01
9.227,0.00,0.01,-0.02,0.02
9.237,-0.01,0.01,-0.03,0.03
9.247,-0.00,0.01,0.02,0.03
9.257,-0.02,0.01,0.01,0.03
9.267,-0.02,0.02,0.01,0.03
9.277,-0.01,0.02,0.01,0.02
9.287,-0.00,0.02,-0.00,0.02
9.298,-0.01,0.01,-0.00,0.01
9.307,0.00,0.01,0.00,0.01
9.318,-0.01,0.00,0.00,0.01
9.328,-0.01,0.01,-0.00,0.01
9.338,-0.00,0.01,-0.01,0.01
9.348,0.00,-0.01,0.03,0.03
9.358,0.00,0.00,0.01,0.01
9.368,0.00,0.00,0.02,0.02
9.378,-0.01,0.02,0.01,0.02
9.388,-0.01,0.02,0.01,0.02
9.398,-0.01,0.02,0.02,0.03
9.408,-0.03,0.02,0.04,0.05
9.418,-0.01,0.02,0.03,0.04
9.428,-0.01,0.01,0.01,0.02
9.438,0.01,0.01,-0.00,0.01
9.448,0.01,0.00,-0.00,0.01
9.459,0.01,0.00,-0.02,0.02
9.468,-0.00,-0.00,-0.02,0.02
9.479,-0.01,0.00,0.00,0.01
9.489,-0.02,0.01,0.02,0.03
9.499,-0.02,0.01,0.02,0.03
9.509,-0.03,0.02,0.00,0.04
9.519,-0.01,0.01,0.01,0.02
9.529,-0.00,0.02,0.02,0.03
9.539,-0.00,0.02,0.01,0.02
9.549,0.00,0.02,-0.00,0.02
9.559,-0.00,0.00,0.02,0.02
9.569,-0.00,0.00,0.01,0.01
9.579,-0.00,-0.00,-0.01,0.01
9.589,-0.01,0.00,-0.02,0.02
9.600,-0.02,0.01,0.01,0.02
9.610,-0.01,0.00,-0.00,0.01
9.620,-0.00,0.00,0.00,0.01
9.630,-0.01,0.01,-0.01,0.01
9.640,0.00,-0.01,-0.01,0.01
9.650,-0.01,-0.01,-0.00,0.01
9.660,-0.01,0.00,0.01,0.01
9.670,-0.02,0.00,0.02,0.03
9.680,-0.02,0.01,0.02,0.03
9.690,-0.00,0.00,0.03,0.03
9.700,0.00,0.00,0.03,0.03
9.710,0.00,0.00,0.03,0.03
9.720,0.00,0.01,0.03,0.03
9.731,-0.01,0.01,0.00,0.02
9.741,-0.01,-0.00,0.00,0.01
9.751,0.00,-0.00,0.01,0.01
9.761,0.01,0.00,-0.02,0.02
9.771,0.00,-0.00,-0.01,0.01
9.781,-0.00,0.01,-0.00,0.02
9.791,-0.00,0.01,-0.00,0.01
9.801,-0.01,0.02,-0.01,0.03
9.811,-0.02,0.01,0.02,0.03
9.821,-0.02,0.01,0.00,0.02
9.831,-0.01,0.01,0.02,0.02
9.841,-0.01,0.00,0.02,0.02
9.852,-0.01,0.00,0.02,0.02
9.861,-0.01,0.01,-0.00,0.02
9.871,-0.01,0.01,0.00,0.02
9.882,-0.01,0.00,-0.00,0.01
9.892,-0.00,-0.00,0.01,0.01
9.902,-0.01,0.00,0.00,0.01
9.912,-0.01,0.01,0.01,0.02
9.922,0.00,0.02,0.01,0.02
9.932,-0.00,0.01,0.02,0.02
9.942,-0.00,0.00,-0.00,0.01
9.952,-0.00,0.00,0.01,0.01
9.962,-0.01,0.01,0.01,0.01
9.972,-0.00,0.00,-0.01,0.01
9.982,-0.01,-0.00,-0.00,0.01
9.992,0.01,-0.01,-0.00,0.01
10.002,0.01,-0.01,0.01,0.01
10.013,-0.00,-0.01,0.01,0.01
10.023,-0.01,0.01,0.02,0.02
10.033,-0.00,0.00,0.02,0.02
10.043,-0.01,0.02,0.02,0.03
10.053,-0.02,0.01,0.00,0.02
10.063,-0.01,0.01,-0.01,0.02
10.073,0.00,0.01,0.00,0.01
10.083,-0.01,0.02,-0.00,0.02
10.093,-0.01,0.02,-0.00,0.02
10.103,-0.00,0.00,0.03,0.03
10.113,0.01,0.00,0.03,0.03
10.123,0.00,0.01,0.01,0.01
10.133,0.01,0.00,-0.01,0.01
10.143,0.02,-0.02,0.00,0.03
10.153,0.00,-0.01,0.01,0.02
10.164,-0.01,0.00,-0.02,0.02
10.174,-0.02,0.02,0.01,0.03
10.184,0.00,0.01,0.01,0.02
10.194,0.02,-0.00,0.02,0.03
10.204,-0.00,0.00,0.04,0.04
10.214,-0.01,0.00,0.01,0.02
10.224,-0.02,0.02,-0.01,0.03
10.234,-0.02,0.02,-0.00,0.03
10.244,-0.01,0.02,-0.04,0.05
10.254,-0.01,0.01,-0.00,0.02
10.264,0.01,0.00,-0.02,0.02
10.274,0.01,-0.01,-0.00,0.01
10.284,-0.00,-0.00,0.01,0.01
10.295,-0.01,0.00,0.04,0.04
10.305,-0.01,0.01,0.04,0.04
10.315,-0.01,0.00,0.03,0.03
10.325,-0.01,0.00,0.01,0.02
10.335,-0.00,0.00,-0.01,0.01
10.345,-0.00,0.00,-0.00,0.01
10.355,-0.01,0.00,-0.02,0.02
10.365,0.00,0.01,-0.01,0.01
10.375,-0.01,0.01,-0.01,0.02
10.385,-0.01,0.01,-0.00,0.02
10.395,0.00,-0.00,0.02,0.02
10.405,0.00,-0.00,0.02,0.02
10.416,-0.03,0.02,0.01,0.04
10.426,0.01,0.00,0.02,0.02
10.435,-0.00,0.01,0.01,0.02
10.446,0.01,0.00,-0.02,0.02
10.456,-0.00,0.01,0.00,0.01
10.466,-0.01,-0.00,-0.05,0.06
10.476,0.00,-0.01,-0.03,0.03
10.486,-0.02,0.01,-0.02,0.03
10.496,-0.01,0.01,0.02,0.03
10.506,0.00,0.00,-0.03,0.03
10.516,-0.01,0.02,-0.01,0.02
10.526,-0.01,0.01,0.04,0.05
10.536,-0.02,0.01,0.05,0.05
10.546,-0.01,0.01,0.03,0.03
10.556,-0.02,0.00,0.01,0.02
10.566,-0.01,0.01,0.00,0.01
10.576,-0.00,0.00,0.01,0.01
10.587,0.01,0.01,-0.02,0.02
10.597,-0.01,0.03,0.05,0.06
10.607,0.01,-0.00,0.03,0.03
10.617,0.01,-0.01,0.04,0.04
10.627,-0.00,-0.01,0.04,0.04
10.637,-0.01,-0.00,-0.01,0.01
10.647,-0.01,0.00,-0.00,0.01
10.657,-0.00,0.00,-0.01,0.02
10.667,0.02,0.00,0.00,0.02
10.677,-0.00,0.01,0.02,0.02
10.687,-0.02,0.01,-0.01,0.03
10.698,-0.00,0.00,0.02,0.02
10.708,-0.01,0.00,0.01,0.02
10.718,-0.00,-0.00,0.01,0.01
10.728,-0.00,-0.01,-0.03,0.03
10.738,0.02,-0.01,0.02,0.02
10.748,0.02,-0.00,0.02,0.03
10.758,-0.01,0.02,-0.01,0.02
10.768,-0.02,0.02,-0.00,0.03
10.778,-0.01,0.01,-0.00,0.01
10.788,-0.02,-0.00,-0.03,0.03
10.798,-0.02,0.01,-0.02,0.03
10.808,-0.01,0.00,0.00,0.01
10.818,-0.00,-0.00,0.02,0.02
10.828,-0.00,0.01,0.02,0.02
10.839,0.01,0.01,0.02,0.02
10.849,0.01,-0.00,0.03,0.03
10.859,-0.00,-0.01,-0.03,0.03
10.869,-0.01,-0.01,-0.01,0.02
10.879,-0.03,0.01,-0.02,0.04
10.889,-0.01,0.01,-0.01,0.02
10.899,-0.00,0.00,0.02,0.02
10.909,-0.01,0.01,0.01,0.01
10.919,-0.01,0.01,-0.01,0.02
10.929,0.01,0.01,-0.02,0.03
10.939,-0.03,0.02,0.12,0.13
10.949,-0.04,0.04,0.05,0.07
10.959,-0.01,0.01,0.08,0.08
10.969,0.01,-0.01,0.02,0.02
10.979,0.02,-0.02,-0.01,0.03
10.990,0.01,-0.02,-0.04,0.05
11.000,0.01,-0.02,-0.04,0.05
11.010,-0.01,0.02,-0.03,0.04
11.020,-0.01,0.02,0.03,0.04
11.030,-0.03,0.03,0.05,0.07
11.040,-0.01,0.04,0.06,0.07
11.050,-0.01,0.03,0.10,0.11
