time,ax,ay,az,atotal
0.000,-0.31,0.10,0.23,0.40
0.010,-0.48,0.03,0.77,0.91
0.020,-0.58,0.03,1.17,1.30
0.030,-0.63,0.09,1.38,1.52
0.040,-0.54,0.24,1.36,1.48
0.050,-0.33,0.43,0.91,1.06
0.060,-0.18,0.51,0.23,0.58
0.070,-0.12,0.47,-0.33,0.59
0.081,-0.06,0.45,-0.72,0.85
0.091,-0.06,0.36,-0.98,1.05
0.101,-0.11,0.33,-0.94,1.01
0.111,-0.02,0.32,-0.85,0.91
0.121,0.08,0.34,-0.70,0.78
0.131,0.01,0.28,-0.48,0.56
0.141,-0.08,0.13,-0.32,0.35
0.151,-0.18,0.02,-0.11,0.21
0.161,-0.20,0.08,0.05,0.22
0.171,-0.11,0.32,-0.01,0.34
0.181,0.06,0.51,-0.18,0.55
0.191,0.09,0.58,-0.15,0.60
0.201,-0.03,0.60,0.05,0.60
0.212,-0.18,0.41,0.37,0.58
0.222,-0.19,0.03,0.27,0.33
0.232,0.04,-0.29,-0.03,0.29
0.242,0.11,-0.33,-0.20,0.40
0.252,0.09,-0.08,-0.21,0.24
0.262,0.19,0.25,-0.12,0.34
0.272,0.31,0.47,-0.05,0.56
0.282,0.36,0.57,-0.06,0.68
0.292,0.30,0.61,-0.09,0.69
0.302,0.30,0.65,-0.06,0.72
0.312,0.26,0.64,0.12,0.70
0.322,0.08,0.54,0.27,0.60
0.333,-0.04,0.44,0.34,0.56
0.342,0.03,0.36,0.36,0.51
0.352,0.04,0.28,0.32,0.43
0.363,0.00,0.24,0.19,0.31
0.373,0.05,0.28,0.01,0.28
0.383,0.11,0.31,-0.16,0.36
0.393,0.14,0.39,-0.22,0.47
0.403,0.20,0.49,-0.13,0.55
0.413,0.14,0.54,0.01,0.56
0.423,0.05,0.57,0.13,0.59
0.433,-0.01,0.59,0.11,0.60
0.443,0.05,0.64,-0.07,0.65
0.453,0.09,0.72,-0.27,0.78
0.463,0.04,0.77,-0.44,0.89
0.474,0.06,0.75,-0.60,0.97
0.484,0.09,0.74,-0.67,1.00
0.494,0.09,0.69,-0.65,0.95
0.504,0.06,0.58,-0.67,0.89
0.514,0.03,0.50,-0.61,0.79
0.524,0.05,0.53,-0.55,0.77
0.534,0.10,0.62,-0.53,0.82
0.544,0.14,0.67,-0.55,0.88
0.554,0.13,0.71,-0.56,0.91
0.564,0.14,0.79,-0.56,0.98
0.574,0.17,0.91,-0.53,1.07
0.584,0.21,0.92,-0.48,1.06
0.594,0.17,0.83,-0.42,0.95
0.604,0.09,0.75,-0.38,0.85
0.614,0.09,0.74,-0.29,0.80
0.625,0.07,0.71,-0.28,0.76
0.635,0.07,0.61,-0.29,0.68
0.645,0.09,0.59,-0.43,0.73
0.655,0.19,0.66,-0.59,0.90
0.665,0.22,0.78,-0.68,1.06
0.675,0.24,0.94,-0.68,1.19
0.685,0.32,1.10,-0.58,1.28
0.695,0.33,1.17,-0.41,1.28
0.705,0.27,1.15,-0.14,1.19
0.715,0.15,1.04,0.13,1.06
0.725,0.07,0.96,0.25,1.00
0.735,0.10,0.94,0.30,0.99
0.746,0.05,0.84,0.36,0.91
0.756,-0.01,0.80,0.45,0.92
0.766,-0.03,0.85,0.52,1.00
0.776,0.07,0.92,0.50,1.05
0.786,0.16,0.93,0.40,1.03
0.796,0.22,0.92,0.27,0.99
0.806,0.22,0.90,0.14,0.94
0.816,0.19,0.93,-0.02,0.95
0.826,0.18,0.95,-0.21,0.99
0.836,0.25,1.00,-0.44,1.12
0.846,0.38,1.14,-0.58,1.33
0.856,0.48,1.29,-0.62,1.51
0.866,0.54,1.41,-0.61,1.62
0.876,0.59,1.41,-0.54,1.62
0.886,0.61,1.33,-0.39,1.51
0.896,0.65,1.29,-0.04,1.45
0.907,0.64,1.26,0.40,1.47
0.917,0.55,1.19,0.83,1.55
0.927,0.45,1.10,1.12,1.63
0.937,0.41,0.97,1.30,1.67
0.947,0.28,0.73,1.53,1.72
0.957,0.08,0.45,1.76,1.82
0.967,-0.01,0.27,1.88,1.90
0.977,-0.05,0.07,1.77,1.77
0.987,-0.06,-0.13,1.41,1.42
0.997,-0.13,-0.37,1.16,1.22
1.007,-0.28,-0.64,0.90,1.13
1.017,-0.32,-0.73,0.50,0.94
1.027,-0.19,-0.64,0.01,0.67
1.037,-0.11,-0.57,-0.42,0.72
1.048,-0.08,-0.54,-0.64,0.84
1.058,-0.11,-0.49,-0.65,0.82
1.068,-0.17,-0.46,-0.64,0.81
1.078,-0.20,-0.53,-0.69,0.89
1.088,-0.21,-0.63,-0.74,0.99
1.098,-0.22,-0.67,-0.76,1.04
1.108,-0.28,-0.71,-0.71,1.04
1.118,-0.33,-0.74,-0.61,1.02
1.128,-0.29,-0.76,-0.57,0.99
1.138,-0.23,-0.84,-0.58,1.05
1.148,-0.24,-1.00,-0.56,1.17
1.158,-0.28,-1.11,-0.58,1.28
1.169,-0.27,-1.12,-0.66,1.33
1.178,-0.24,-1.08,-0.65,1.28
1.189,-0.29,-1.05,-0.50,1.19
1.199,-0.34,-1.04,-0.27,1.13
1.209,-0.37,-1.03,-0.08,1.09
1.219,-0.41,-1.01,0.09,1.10
1.229,-0.41,-0.95,0.30,1.08
1.239,-0.41,-0.91,0.50,1.12
1.249,-0.53,-1.01,0.62,1.30
1.259,-0.56,-1.06,0.55,1.32
1.269,-0.47,-1.02,0.34,1.17
1.279,-0.42,-0.97,0.10,1.06
1.289,-0.41,-0.88,-0.12,0.98
1.299,-0.37,-0.78,-0.30,0.91
1.309,-0.37,-0.64,-0.39,0.84
1.320,-0.36,-0.41,-0.38,0.66
1.330,-0.38,-0.22,-0.39,0.59
1.340,-0.36,-0.05,-0.51,0.62
1.350,-0.23,0.12,-0.64,0.69
1.360,-0.14,0.28,-0.74,0.80
1.370,-0.07,0.42,-0.79,0.90
1.380,-0.01,0.51,-0.82,0.97
1.390,0.04,0.53,-0.72,0.90
1.400,0.04,0.45,-0.56,0.71
1.410,0.04,0.36,-0.45,0.58
1.420,0.12,0.31,-0.38,0.50
1.430,0.14,0.21,-0.39,0.47
1.440,0.20,0.18,-0.46,0.53
1.451,0.30,0.20,-0.56,0.67
1.461,0.34,0.26,-0.59,0.73
1.471,0.35,0.34,-0.62,0.79
1.481,0.42,0.42,-0.62,0.86
1.491,0.50,0.50,-0.62,0.94
1.501,0.54,0.59,-0.58,0.98
1.511,0.51,0.64,-0.51,0.96
1.521,0.41,0.65,-0.44,0.88
1.531,0.40,0.72,-0.44,0.94
1.541,0.46,0.91,-0.42,1.11
1.551,0.38,1.11,-0.51,1.28
1.561,0.38,1.29,-0.80,1.56
1.571,0.41,1.46,-0.96,1.79
1.582,0.27,1.59,-0.92,1.86
1.592,0.13,1.56,-0.62,1.68
1.602,0.09,1.32,-0.30,1.36
1.612,0.11,1.00,0.01,1.00
1.622,0.07,0.81,0.42,0.92
1.632,-0.12,0.81,0.71,1.09
1.642,-0.30,0.84,0.82,1.21
1.652,-0.31,0.91,0.74,1.21
1.662,-0.29,1.01,0.56,1.19
1.672,-0.33,0.96,0.39,1.09
1.682,-0.38,0.90,0.22,1.00
1.692,-0.34,0.93,0.00,0.99
1.702,-0.30,1.03,-0.20,1.09
1.713,-0.29,1.13,-0.27,1.19
1.723,-0.31,1.21,-0.32,1.29
1.733,-0.28,1.26,-0.35,1.33
1.743,-0.21,1.26,-0.35,1.32
1.753,-0.07,1.26,-0.35,1.31
1.763,0.06,1.21,-0.33,1.25
1.773,0.07,1.02,-0.21,1.04
1.783,0.08,0.84,0.06,0.85
1.793,0.19,0.79,0.47,0.94
1.803,0.26,0.75,0.86,1.17
1.813,0.19,0.62,1.30,1.45
1.823,0.00,0.32,1.76,1.79
1.833,-0.23,0.00,2.21,2.22
1.843,-0.38,-0.26,2.45,2.49
1.854,-0.42,-0.47,2.39,2.47
1.864,-0.39,-0.64,2.00,2.14
1.874,-0.32,-0.74,1.44,1.65
1.884,-0.28,-0.81,0.77,1.15
1.894,-0.20,-0.85,0.21,0.90
1.904,-0.14,-0.81,-0.20,0.85
1.914,-0.05,-0.76,-0.51,0.91
1.924,0.01,-0.70,-0.62,0.93
1.934,-0.05,-0.71,-0.54,0.89
1.944,-0.11,-0.77,-0.47,0.91
1.954,-0.10,-0.84,-0.51,0.98
1.964,-0.02,-0.81,-0.58,1.00
1.974,0.01,-0.85,-0.64,1.07
1.985,-0.08,-0.93,-0.70,1.17
1.994,-0.04,-0.87,-0.80,1.19
2.005,0.06,-0.71,-0.87,1.12
2.015,0.10,-0.55,-0.83,1.00
2.025,0.11,-0.50,-0.67,0.84
2.035,0.07,-0.53,-0.46,0.71
2.045,-0.00,-0.58,-0.11,0.59
2.055,-0.13,-0.67,0.44,0.81
2.065,-0.23,-0.78,0.91,1.22
2.075,-0.29,-0.96,1.28,1.63
2.085,-0.40,-1.16,1.49,1.93
2.095,-0.48,-1.24,1.41,1.94
2.105,-0.48,-1.22,1.05,1.68
2.115,-0.43,-1.10,0.48,1.27
2.125,-0.30,-0.93,-0.18,1.00
2.135,-0.10,-0.73,-0.70,1.01
2.146,-0.03,-0.58,-0.93,1.10
2.156,-0.00,-0.50,-0.90,1.03
2.166,0.06,-0.45,-0.81,0.92
2.176,0.15,-0.38,-0.83,0.92
2.186,0.17,-0.33,-0.81,0.89
2.196,0.13,-0.27,-0.74,0.80
2.206,0.13,-0.22,-0.74,0.79
2.216,0.19,-0.20,-0.78,0.83
2.226,0.21,-0.20,-0.68,0.74
2.236,0.18,-0.10,-0.56,0.59
2.246,0.23,0.05,-0.50,0.55
2.256,0.27,0.15,-0.50,0.58
2.266,0.27,0.22,-0.42,0.55
2.277,0.21,0.34,-0.21,0.46
2.287,0.17,0.41,-0.07,0.45
2.297,0.21,0.40,-0.06,0.46
2.307,0.25,0.36,-0.05,0.45
2.317,0.16,0.34,0.02,0.37
2.327,0.10,0.37,0.02,0.38
2.337,0.15,0.44,-0.08,0.47
2.347,0.16,0.54,-0.17,0.59
2.357,0.13,0.59,-0.22,0.64
2.367,0.06,0.61,-0.13,0.63
2.377,0.03,0.64,-0.04,0.64
2.387,0.03,0.62,0.04,0.62
2.398,0.01,0.54,0.13,0.56
2.408,-0.01,0.46,0.16,0.49
2.418,0.04,0.46,0.11,0.48
2.428,0.07,0.46,-0.01,0.47
2.438,0.10,0.44,-0.14,0.47
2.448,0.15,0.46,-0.24,0.54
2.458,0.20,0.53,-0.25,0.62
2.468,0.24,0.64,-0.16,0.70
2.478,0.32,0.75,0.01,0.82
2.488,0.45,0.88,0.05,0.99
2.498,0.54,0.89,0.10,1.04
2.508,0.55,0.82,0.18,1.01
2.518,0.51,0.76,0.33,0.98
2.529,0.51,0.76,0.52,1.05
2.538,0.45,0.73,0.66,1.08
2.549,0.35,0.63,0.80,1.07
2.559,0.26,0.37,0.91,1.02
2.569,0.19,-0.05,1.01,1.03
2.579,0.07,-0.39,1.15,1.22
2.589,-0.07,-0.56,1.30,1.42
2.599,-0.14,-0.66,1.35,1.51
2.609,-0.15,-0.69,1.38,1.55
2.619,-0.24,-0.75,1.32,1.54
2.629,-0.26,-0.77,1.17,1.42
2.639,-0.20,-0.69,0.85,1.11
2.649,-0.19,-0.61,0.53,0.83
2.659,-0.31,-0.65,0.23,0.75
2.670,-0.45,-0.76,-0.02,0.89
2.679,-0.53,-0.85,-0.34,1.05
2.690,-0.55,-0.87,-0.65,1.21
2.700,-0.56,-0.85,-0.84,1.32
2.710,-0.63,-0.82,-0.90,1.37
2.720,-0.65,-0.82,-0.87,1.35
2.730,-0.63,-0.80,-0.72,1.25
2.740,-0.67,-0.74,-0.56,1.14
2.750,-0.65,-0.68,-0.38,1.02
2.760,-0.64,-0.62,-0.27,0.93
2.770,-0.58,-0.59,-0.27,0.87
2.780,-0.50,-0.62,-0.37,0.88
2.790,-0.42,-0.67,-0.48,0.93
2.800,-0.33,-0.71,-0.52,0.94
2.811,-0.29,-0.78,-0.42,0.93
2.821,-0.31,-0.90,-0.21,0.98
2.831,-0.34,-0.96,0.02,1.02
2.841,-0.34,-0.88,0.19,0.96
2.851,-0.29,-0.72,0.35,0.85
2.861,-0.32,-0.56,0.56,0.85
2.871,-0.33,-0.44,0.75,0.92
2.881,-0.30,-0.35,0.79,0.91
2.891,-0.27,-0.30,0.69,0.80
2.901,-0.24,-0.25,0.50,0.61
2.911,-0.21,-0.23,0.19,0.36
2.921,-0.13,-0.22,-0.14,0.29
2.932,-0.06,-0.19,-0.42,0.46
2.941,-0.13,-0.15,-0.54,0.58
2.952,-0.17,-0.06,-0.73,0.75
2.961,-0.02,0.09,-0.85,0.85
2.972,-0.00,0.15,-0.89,0.90
2.982,-0.01,0.23,-0.80,0.83
2.992,-0.03,0.30,-0.59,0.67
3.002,-0.08,0.33,-0.48,0.58
3.012,-0.01,0.28,-0.41,0.50
3.022,-0.00,0.26,-0.34,0.43
3.032,-0.05,0.31,-0.34,0.46
3.042,0.05,0.38,-0.47,0.61
3.052,0.16,0.50,-0.63,0.82
3.062,0.18,0.58,-0.67,0.91
3.072,0.13,0.63,-0.61,0.88
3.082,0.12,0.69,-0.53,0.87
3.093,0.11,0.79,-0.36,0.88
3.103,0.05,0.88,-0.16,0.90
3.113,-0.00,0.95,0.05,0.95
3.123,-0.06,0.97,0.17,0.99
3.133,-0.08,0.98,0.17,1.00
3.143,-0.09,0.93,0.15,0.95
3.153,-0.21,0.84,0.19,0.89
3.163,-0.22,0.74,0.19,0.80
3.173,-0.14,0.65,0.16,0.68
3.183,-0.11,0.62,0.18,0.65
3.193,-0.13,0.63,0.29,0.71
3.203,-0.16,0.61,0.46,0.78
3.213,-0.19,0.58,0.59,0.84
3.223,-0.23,0.52,0.68,0.89
3.233,-0.24,0.48,0.66,0.85
3.244,-0.15,0.42,0.48,0.66
3.254,-0.01,0.40,0.10,0.41
3.264,0.13,0.42,-0.36,0.57
3.274,0.21,0.46,-0.62,0.80
3.284,0.13,0.43,-0.71,0.84
3.294,0.12,0.52,-0.60,0.80
3.304,0.14,0.61,-0.42,0.76
3.314,0.05,0.58,-0.24,0.63
3.324,-0.13,0.47,0.06,0.49
3.334,-0.30,0.34,0.53,0.70
3.345,-0.42,0.25,1.04,1.15
3.355,-0.50,0.19,1.44,1.53
3.364,-0.49,0.14,1.56,1.64
3.375,-0.41,0.04,1.46,1.52
3.385,-0.32,-0.14,1.23,1.28
3.395,-0.21,-0.34,0.89,0.98
3.405,-0.08,-0.53,0.52,0.74
3.415,0.05,-0.70,0.28,0.75
3.425,0.13,-0.81,0.13,0.83
3.435,0.17,-0.89,0.01,0.90
3.445,0.07,-0.98,0.00,0.98
3.455,-0.08,-0.93,0.05,0.93
3.465,-0.18,-0.83,0.05,0.85
3.475,-0.21,-0.75,0.01,0.78
3.485,-0.23,-0.70,-0.01,0.73
3.495,-0.17,-0.62,0.01,0.65
3.506,-0.04,-0.49,-0.05,0.49
3.516,0.05,-0.37,-0.17,0.41
3.526,0.16,-0.34,-0.26,0.46
3.536,0.19,-0.34,-0.31,0.50
3.546,0.24,-0.35,-0.41,0.59
3.556,0.32,-0.37,-0.49,0.70
3.566,0.33,-0.43,-0.44,0.69
3.576,0.26,-0.49,-0.30,0.63
3.586,0.20,-0.55,-0.11,0.60
3.596,0.11,-0.62,0.14,0.64
3.606,0.03,-0.67,0.32,0.74
3.616,-0.02,-0.70,0.44,0.83
3.626,-0.08,-0.70,0.51,0.87
3.636,-0.12,-0.64,0.54,0.85
3.647,-0.12,-0.56,0.51,0.77
3.657,-0.12,-0.43,0.48,0.65
3.667,-0.07,-0.31,0.45,0.55
3.677,-0.10,-0.22,0.51,0.56
3.687,-0.13,-0.21,0.57,0.62
3.697,-0.13,-0.28,0.57,0.65
3.707,-0.01,-0.32,0.39,0.50
3.717,0.14,-0.34,0.12,0.38
3.727,0.21,-0.38,-0.17,0.46
3.737,0.24,-0.37,-0.38,0.58
3.747,0.26,-0.31,-0.50,0.65
3.757,0.30,-0.27,-0.63,0.75
3.768,0.36,-0.24,-0.67,0.80
3.778,0.34,-0.15,-0.64,0.74
3.788,0.29,-0.06,-0.60,0.67
3.798,0.26,-0.01,-0.63,0.68
3.808,0.26,-0.01,-0.66,0.71
3.818,0.27,0.04,-0.66,0.72
3.828,0.34,0.20,-0.64,0.75
3.838,0.37,0.33,-0.60,0.78
3.848,0.34,0.36,-0.53,0.73
3.858,0.30,0.35,-0.46,0.65
3.868,0.27,0.29,-0.43,0.58
3.878,0.27,0.25,-0.42,0.55
3.888,0.27,0.25,-0.42,0.56
3.898,0.28,0.28,-0.43,0.59
3.908,0.34,0.39,-0.46,0.69
3.919,0.39,0.51,-0.49,0.80
3.929,0.32,0.57,-0.56,0.86
3.939,0.28,0.63,-0.62,0.93
3.949,0.21,0.68,-0.57,0.91
3.959,0.18,0.72,-0.51,0.90
3.969,0.21,0.73,-0.44,0.88
3.979,0.21,0.71,-0.37,0.83
3.989,0.24,0.71,-0.20,0.78
3.999,0.26,0.69,0.07,0.75
4.009,0.21,0.58,0.47,0.78
4.019,0.04,0.56,0.82,0.99
4.029,0.06,0.67,0.99,1.20
4.039,0.16,0.84,0.93,1.26
4.049,0.27,0.91,0.73,1.20
4.060,0.20,0.91,0.44,1.03
4.070,0.18,0.93,0.12,0.95
4.080,0.35,0.95,-0.20,1.03
4.090,0.47,0.83,-0.31,1.00
4.100,0.42,0.62,-0.09,0.75
4.110,0.22,0.35,0.41,0.58
4.120,0.04,0.10,0.97,0.97
4.130,-0.10,-0.10,1.41,1.42
4.140,-0.20,-0.27,1.64,1.67
4.150,-0.36,-0.42,1.52,1.61
4.160,-0.51,-0.61,1.08,1.34
4.170,-0.66,-0.83,0.42,1.14
4.180,-0.71,-0.97,-0.20,1.22
4.190,-0.69,-1.13,-0.63,1.47
4.201,-0.61,-1.15,-0.92,1.59
4.211,-0.46,-0.93,-1.07,1.49
4.221,-0.32,-0.64,-1.08,1.29
4.231,-0.24,-0.50,-0.96,1.11
4.241,-0.26,-0.58,-0.80,1.02
4.251,-0.37,-0.72,-0.56,0.99
4.261,-0.51,-0.75,-0.31,0.96
4.271,-0.57,-0.65,-0.18,0.88
4.281,-0.49,-0.46,-0.17,0.69
4.291,-0.41,-0.38,-0.27,0.62
4.301,-0.36,-0.41,-0.32,0.63
4.312,-0.27,-0.51,-0.26,0.63
4.321,-0.22,-0.61,-0.16,0.67
4.331,-0.21,-0.75,-0.04,0.77
4.342,-0.15,-0.86,0.13,0.88
4.352,-0.14,-0.93,0.29,0.98
4.362,-0.12,-0.97,0.46,1.08
4.372,-0.16,-0.95,0.62,1.15
4.382,-0.25,-0.85,0.76,1.16
4.392,-0.32,-0.70,0.89,1.18
4.402,-0.37,-0.54,1.00,1.20
4.412,-0.37,-0.40,0.99,1.13
4.422,-0.39,-0.31,0.94,1.07
4.432,-0.45,-0.28,0.95,1.09
4.442,-0.58,-0.31,0.90,1.12
4.452,-0.61,-0.38,0.65,0.97
4.462,-0.53,-0.38,0.34,0.74
4.473,-0.49,-0.26,0.03,0.55
4.483,-0.40,-0.08,-0.26,0.49
4.493,-0.29,0.09,-0.52,0.60
4.503,-0.19,0.23,-0.67,0.73
4.513,-0.14,0.30,-0.76,0.83
4.523,-0.09,0.29,-0.82,0.88
4.533,-0.04,0.27,-0.85,0.89
4.543,-0.07,0.26,-0.81,0.85
4.553,-0.11,0.27,-0.74,0.80
4.563,-0.14,0.32,-0.68,0.76
4.573,-0.15,0.41,-0.64,0.78
4.583,-0.12,0.55,-0.63,0.85
4.593,-0.12,0.65,-0.63,0.91
4.603,-0.11,0.74,-0.63,0.97
4.613,-0.12,0.80,-0.61,1.01
4.624,-0.15,0.81,-0.58,1.01
4.634,-0.12,0.84,-0.49,0.98
4.644,-0.10,0.91,-0.41,1.00
4.654,-0.13,0.98,-0.28,1.02
4.664,-0.12,1.01,-0.14,1.03
4.674,-0.16,0.96,-0.04,0.98
4.684,-0.20,0.90,0.02,0.93
4.694,-0.20,0.83,-0.01,0.85
4.704,-0.17,0.80,-0.09,0.82
4.714,-0.16,0.83,-0.23,0.87
4.724,-0.11,0.86,-0.33,0.93
4.734,-0.07,0.93,-0.30,0.98
4.744,-0.06,0.97,-0.18,0.99
4.755,-0.13,0.98,-0.14,1.00
4.765,-0.10,1.07,-0.07,1.07
4.775,-0.02,1.08,0.01,1.08
4.785,-0.06,1.03,0.10,1.04
4.795,-0.11,0.95,0.24,0.98
4.805,-0.14,0.83,0.38,0.92
4.815,-0.20,0.76,0.44,0.91
4.825,-0.19,0.72,0.35,0.82
4.835,-0.07,0.76,0.13,0.78
4.845,0.01,0.76,-0.02,0.76
4.855,-0.03,0.59,-0.09,0.60
4.865,-0.06,0.43,-0.04,0.43
4.875,-0.04,0.38,0.11,0.40
4.885,-0.05,0.45,0.44,0.63
4.896,-0.11,0.40,0.89,0.98
4.906,-0.21,0.20,1.37,1.40
4.916,-0.36,-0.05,1.80,1.83
4.926,-0.46,-0.28,1.95,2.03
4.936,-0.45,-0.48,1.74,1.86
4.946,-0.36,-0.61,1.29,1.47
4.956,-0.28,-0.65,0.80,1.07
4.966,-0.23,-0.61,0.33,0.73
4.976,-0.11,-0.47,-0.01,0.48
4.986,-0.03,-0.39,-0.23,0.45
4.996,0.01,-0.38,-0.17,0.42
5.006,-0.16,-0.42,0.11,0.46
5.016,-0.27,-0.50,0.41,0.70
5.026,-0.30,-0.55,0.63,0.88
5.037,-0.35,-0.59,0.73,1.00
5.047,-0.33,-0.70,0.75,1.08
5.057,-0.31,-0.84,0.62,1.09
5.067,-0.36,-1.06,0.40,1.19
5.077,-0.34,-1.28,-0.12,1.33
5.087,-0.21,-1.39,-0.74,1.59
5.097,-0.08,-1.32,-1.15,1.75
5.107,0.14,-1.11,-1.40,1.80
5.117,0.34,-0.94,-1.45,1.76
5.127,0.34,-0.91,-1.25,1.59
5.137,0.34,-0.92,-0.90,1.33
5.147,0.35,-0.89,-0.54,1.10
5.158,0.31,-0.83,-0.19,0.91
5.168,0.28,-0.79,0.10,0.84
5.178,0.29,-0.69,0.28,0.80
5.188,0.31,-0.57,0.42,0.78
5.198,0.34,-0.51,0.49,0.78
5.208,0.36,-0.53,0.52,0.82
5.218,0.34,-0.61,0.65,0.96
5.228,0.27,-0.71,0.71,1.04
5.238,0.25,-0.71,0.62,0.97
5.248,0.27,-0.65,0.51,0.87
5.258,0.29,-0.60,0.30,0.73
5.268,0.36,-0.52,0.03,0.63
5.278,0.38,-0.46,-0.09,0.60
5.289,0.38,-0.40,-0.16,0.57
5.299,0.40,-0.38,-0.19,0.59
5.309,0.40,-0.38,-0.31,0.64
5.319,0.44,-0.30,-0.43,0.69
5.329,0.48,-0.21,-0.57,0.78
5.339,0.50,-0.12,-0.62,0.81
5.349,0.38,-0.08,-0.50,0.63
5.359,0.33,-0.10,-0.40,0.53
5.369,0.41,-0.06,-0.44,0.60
5.379,0.49,0.06,-0.48,0.69
5.389,0.53,0.22,-0.51,0.77
5.399,0.54,0.39,-0.45,0.81
5.409,0.49,0.49,-0.38,0.79
5.419,0.49,0.59,-0.31,0.83
5.430,0.50,0.64,-0.27,0.86
5.440,0.52,0.69,-0.17,0.88
5.450,0.53,0.71,-0.08,0.89
5.460,0.46,0.71,0.10,0.85
5.470,0.38,0.63,0.23,0.77
5.480,0.40,0.55,0.21,0.71
5.490,0.44,0.49,0.13,0.67
5.500,0.49,0.44,0.05,0.66
5.510,0.51,0.41,0.02,0.66
5.520,0.49,0.40,-0.01,0.63
5.530,0.52,0.39,-0.01,0.65
5.540,0.50,0.42,0.05,0.66
5.550,0.46,0.44,0.09,0.65
5.561,0.42,0.45,0.12,0.62
5.571,0.39,0.46,0.14,0.62
5.580,0.38,0.45,0.13,0.60
5.591,0.33,0.39,0.17,0.54
5.601,0.24,0.33,0.22,0.46
5.611,0.24,0.34,0.24,0.48
5.621,0.36,0.47,0.17,0.61
5.631,0.48,0.66,0.01,0.82
5.641,0.53,0.83,-0.12,0.99
5.651,0.55,0.96,-0.08,1.11
5.661,0.50,0.98,0.24,1.13
5.671,0.35,0.89,0.60,1.12
5.681,0.36,0.89,0.93,1.33
5.691,0.41,0.90,1.26,1.60
5.702,0.24,0.75,1.55,1.74
5.711,0.03,0.49,1.78,1.85
5.722,-0.13,0.25,1.88,1.90
5.732,-0.22,0.11,1.75,1.77
5.742,-0.28,-0.00,1.43,1.46
5.752,-0.34,-0.14,0.96,1.03
5.762,-0.35,-0.26,0.41,0.60
5.772,-0.33,-0.31,-0.12,0.47
5.782,-0.32,-0.35,-0.44,0.65
5.792,-0.40,-0.36,-0.54,0.76
5.802,-0.41,-0.39,-0.57,0.80
5.812,-0.39,-0.41,-0.59,0.82
5.822,-0.39,-0.47,-0.67,0.91
5.832,-0.43,-0.65,-0.74,1.07
5.843,-0.49,-0.84,-0.76,1.23
5.853,-0.51,-0.94,-0.73,1.29
5.863,-0.54,-0.98,-0.69,1.32
5.873,-0.56,-1.02,-0.64,1.33
5.883,-0.61,-1.02,-0.47,1.28
5.893,-0.65,-0.96,-0.22,1.18
5.903,-0.58,-0.87,-0.07,1.04
5.913,-0.44,-0.80,-0.03,0.92
5.923,-0.39,-0.81,-0.06,0.90
5.933,-0.45,-0.89,-0.08,1.00
5.943,-0.57,-0.94,-0.10,1.11
5.953,-0.61,-0.91,-0.06,1.10
5.963,-0.64,-0.80,0.06,1.03
5.973,-0.71,-0.73,0.30,1.06
5.984,-0.72,-0.76,0.51,1.17
5.993,-0.69,-0.85,0.70,1.30
6.004,-0.68,-0.95,0.84,1.44
6.014,-0.70,-1.06,0.89,1.55
6.024,-0.67,-1.16,0.86,1.59
6.034,-0.66,-1.11,0.81,1.52
6.044,-0.66,-0.95,0.66,1.34
6.054,-0.59,-0.81,0.36,1.06
6.064,-0.49,-0.68,0.00,0.84
6.074,-0.46,-0.50,-0.30,0.75
6.084,-0.40,-0.32,-0.59,0.79
6.094,-0.28,-0.25,-0.84,0.92
6.104,-0.17,-0.27,-0.98,1.03
6.115,-0.14,-0.31,-0.96,1.02
6.124,-0.07,-0.33,-0.97,1.03
6.135,0.04,-0.30,-0.98,1.03
6.145,0.09,-0.27,-1.07,1.11
6.155,0.08,-0.23,-1.16,1.18
6.165,0.12,-0.15,-1.17,1.18
6.175,0.14,-0.04,-1.12,1.13
6.185,0.08,0.00,-1.00,1.00
6.195,0.08,0.05,-0.88,0.89
6.205,0.15,0.15,-0.79,0.81
6.215,0.21,0.26,-0.69,0.77
6.225,0.20,0.38,-0.55,0.70
6.235,0.15,0.51,-0.43,0.68
6.245,0.15,0.56,-0.34,0.67
6.256,0.13,0.54,-0.28,0.62
6.266,0.13,0.54,-0.25,0.61
6.276,0.16,0.58,-0.17,0.63
6.286,0.10,0.59,-0.20,0.63
6.296,0.08,0.65,-0.14,0.67
6.306,0.01,0.72,-0.03,0.72
6.316,0.02,0.81,0.03,0.81
6.326,0.08,0.89,0.16,0.91
6.336,0.05,0.95,0.32,1.00
6.346,0.06,0.98,0.48,1.10
6.356,0.05,0.96,0.58,1.12
6.366,0.04,0.91,0.57,1.08
6.376,0.03,0.92,0.47,1.04
6.387,0.03,0.94,0.33,1.00
6.396,0.03,0.93,0.20,0.96
6.407,0.08,0.96,0.05,0.96
6.417,0.12,0.94,-0.07,0.95
6.427,0.12,0.87,-0.11,0.89
6.437,0.14,0.85,-0.14,0.87
6.447,0.16,0.87,-0.10,0.89
6.457,0.12,0.90,-0.04,0.91
6.467,0.08,0.92,0.02,0.93
6.477,0.04,0.94,0.13,0.95
6.487,-0.04,0.90,0.23,0.93
6.497,-0.09,0.84,0.33,0.91
6.507,-0.08,0.85,0.34,0.92
6.517,-0.03,0.91,0.22,0.94
6.528,-0.02,0.90,0.13,0.91
6.538,-0.06,0.77,0.20,0.80
6.548,-0.22,0.67,0.32,0.77
6.558,-0.31,0.68,0.47,0.89
6.568,-0.40,0.70,0.76,1.11
6.578,-0.59,0.55,1.17,1.42
6.588,-0.81,0.32,1.62,1.84
6.598,-0.96,0.06,1.94,2.16
6.608,-1.03,-0.16,1.96,2.22
6.618,-1.01,-0.32,1.61,1.93
6.628,-0.97,-0.44,1.03,1.48
6.638,-0.89,-0.51,0.39,1.09
6.648,-0.79,-0.53,-0.20,0.97
6.658,-0.70,-0.50,-0.54,1.01
6.669,-0.67,-0.45,-0.61,1.02
6.679,-0.71,-0.48,-0.55,1.02
6.689,-0.71,-0.53,-0.42,0.98
6.699,-0.71,-0.60,-0.21,0.95
6.709,-0.80,-0.77,-0.05,1.11
6.719,-0.78,-0.85,0.12,1.16
6.729,-0.85,-0.90,0.14,1.25
6.739,-0.82,-0.94,0.12,1.26
6.749,-0.82,-0.98,-0.01,1.27
6.759,-0.76,-1.00,-0.29,1.29
6.769,-0.61,-1.03,-0.56,1.32
6.779,-0.56,-1.04,-0.70,1.37
6.789,-0.62,-1.06,-0.68,1.40
6.799,-0.67,-1.09,-0.59,1.41
6.809,-0.64,-1.14,-0.46,1.38
6.819,-0.68,-1.21,-0.21,1.40
6.830,-0.77,-1.23,-0.01,1.45
6.840,-0.76,-1.26,0.08,1.47
6.850,-0.78,-1.28,0.11,1.50
6.860,-0.80,-1.27,0.10,1.50
6.870,-0.83,-1.21,0.01,1.47
6.880,-0.79,-1.10,-0.10,1.35
6.890,-0.75,-0.99,-0.19,1.26
6.900,-0.68,-0.91,-0.28,1.17
6.910,-0.64,-0.85,-0.29,1.10
6.920,-0.62,-0.78,-0.19,1.01
6.931,-0.64,-0.71,0.03,0.96
6.940,-0.63,-0.66,0.29,0.96
6.951,-0.67,-0.68,0.50,1.08
6.961,-0.67,-0.78,0.73,1.26
6.971,-0.66,-0.88,0.96,1.46
6.981,-0.67,-0.98,1.12,1.63
6.991,-0.67,-1.07,1.23,1.76
7.001,-0.66,-1.15,1.18,1.77
7.011,-0.62,-1.18,1.07,1.71
7.021,-0.59,-1.15,0.93,1.59
7.031,-0.53,-1.04,0.73,1.38
7.041,-0.44,-0.90,0.52,1.13
7.051,-0.39,-0.77,0.29,0.91
7.062,-0.37,-0.68,0.05,0.78
7.071,-0.33,-0.60,-0.12,0.70
7.081,-0.31,-0.59,-0.19,0.69
7.092,-0.33,-0.57,-0.20,0.69
7.102,-0.38,-0.49,-0.17,0.64
7.112,-0.42,-0.33,-0.15,0.55
7.122,-0.43,-0.17,-0.11,0.47
7.132,-0.44,-0.05,-0.11,0.45
7.142,-0.41,0.05,-0.17,0.45
7.152,-0.39,0.09,-0.24,0.47
7.162,-0.39,0.11,-0.26,0.48
7.172,-0.38,0.11,-0.23,0.46
7.182,-0.39,0.07,-0.15,0.42
7.193,-0.42,0.01,-0.10,0.43
7.202,-0.45,-0.05,-0.06,0.45
7.212,-0.44,-0.05,-0.01,0.44
7.223,-0.39,0.01,0.13,0.41
7.233,-0.41,0.01,0.26,0.48
7.243,-0.50,0.01,0.24,0.56
7.253,-0.48,0.11,0.21,0.53
7.263,-0.42,0.17,0.17,0.49
7.273,-0.44,0.18,0.17,0.50
7.283,-0.45,0.14,0.18,0.50
7.293,-0.47,0.10,0.21,0.53
7.303,-0.46,0.06,0.21,0.51
7.313,-0.43,0.09,0.21,0.49
7.323,-0.44,0.12,0.26,0.53
7.333,-0.49,0.09,0.30,0.58
7.343,-0.49,0.04,0.25,0.55
7.353,-0.49,0.02,0.32,0.58
7.364,-0.55,-0.07,0.41,0.69
7.374,-0.59,-0.16,0.44,0.76
7.384,-0.57,-0.22,0.51,0.80
7.394,-0.56,-0.31,0.52,0.82
7.404,-0.58,-0.38,0.50,0.85
7.414,-0.62,-0.43,0.44,0.88
7.424,-0.65,-0.46,0.32,0.86
7.434,-0.61,-0.48,0.15,0.79
7.444,-0.58,-0.50,0.06,0.77
7.454,-0.57,-0.51,0.11,0.78
7.464,-0.54,-0.46,0.26,0.75
7.474,-0.45,-0.42,0.45,0.76
7.484,-0.36,-0.45,0.59,0.82
7.495,-0.34,-0.56,0.67,0.93
7.505,-0.39,-0.67,0.72,1.06
7.515,-0.42,-0.78,0.76,1.16
7.525,-0.46,-0.89,0.75,1.25
7.535,-0.52,-1.08,0.66,1.37
7.545,-0.56,-1.35,0.46,1.53
7.555,-0.57,-1.56,0.36,1.70
7.565,-0.72,-1.68,0.44,1.88
7.575,-0.83,-1.80,0.51,2.05
7.585,-0.81,-1.87,0.52,2.11
7.595,-0.75,-1.88,0.39,2.06
7.605,-0.67,-1.82,0.23,1.95
7.615,-0.66,-1.74,0.12,1.87
7.625,-0.62,-1.62,0.02,1.74
7.636,-0.53,-1.51,0.05,1.60
7.646,-0.51,-1.45,0.16,1.54
7.656,-0.50,-1.43,0.34,1.56
7.666,-0.53,-1.46,0.55,1.64
7.676,-0.60,-1.53,0.74,1.81
7.686,-0.69,-1.67,0.90,2.02
7.696,-0.79,-1.79,0.95,2.17
7.706,-0.76,-1.84,0.81,2.15
7.716,-0.66,-1.83,0.59,2.03
7.726,-0.61,-1.80,0.47,1.95
7.736,-0.63,-1.72,0.41,1.88
7.746,-0.54,-1.65,0.24,1.75
7.756,-0.43,-1.60,-0.02,1.66
7.767,-0.28,-1.52,-0.23,1.56
7.777,-0.27,-1.43,-0.32,1.49
7.787,-0.27,-1.42,-0.33,1.49
7.797,-0.30,-1.48,-0.28,1.54
7.807,-0.35,-1.51,-0.22,1.56
7.817,-0.40,-1.52,-0.12,1.57
7.827,-0.49,-1.48,0.13,1.57
7.837,-0.65,-1.39,0.50,1.61
7.847,-0.79,-1.33,0.80,1.74
7.857,-0.78,-1.22,1.05,1.79
7.867,-0.68,-1.08,1.25,1.78
7.878,-0.65,-1.02,1.44,1.88
7.887,-0.63,-1.00,1.53,1.94
7.897,-0.62,-1.05,1.44,1.89
7.907,-0.56,-1.09,1.16,1.69
7.917,-0.43,-1.07,0.85,1.43
7.928,-0.38,-1.10,0.54,1.29
7.938,-0.38,-1.08,0.31,1.19
7.948,-0.31,-1.01,0.15,1.06
7.958,-0.22,-0.89,0.04,0.91
7.968,-0.12,-0.78,-0.02,0.79
7.978,-0.05,-0.73,0.02,0.73
7.988,-0.01,-0.68,0.04,0.68
7.998,0.07,-0.67,0.01,0.67
8.008,0.14,-0.65,-0.06,0.66
8.018,0.17,-0.59,-0.20,0.65
8.028,0.19,-0.57,-0.34,0.69
8.038,0.22,-0.58,-0.46,0.77
8.048,0.30,-0.55,-0.54,0.82
8.059,0.36,-0.46,-0.52,0.78
8.069,0.40,-0.42,-0.50,0.77
8.079,0.48,-0.44,-0.49,0.82
8.089,0.48,-0.48,-0.35,0.76
8.099,0.37,-0.58,-0.08,0.69
8.109,0.36,-0.57,0.24,0.72
8.119,0.41,-0.41,0.55,0.81
8.129,0.40,-0.29,0.88,1.01
8.139,0.31,-0.28,1.17,1.24
8.149,0.27,-0.31,1.27,1.33
8.159,0.35,-0.32,1.16,1.25
8.169,0.46,-0.30,0.86,1.02
8.179,0.58,-0.26,0.47,0.79
8.190,0.67,-0.24,0.12,0.72
8.200,0.68,-0.19,-0.12,0.72
8.210,0.71,-0.10,-0.30,0.78
8.220,0.78,0.01,-0.40,0.88
8.230,0.86,0.13,-0.43,0.97
8.240,0.88,0.25,-0.44,1.01
8.250,0.87,0.39,-0.46,1.06
8.260,0.88,0.55,-0.51,1.15
8.270,0.96,0.78,-0.59,1.37
8.280,1.00,1.01,-0.68,1.58
8.290,1.12,1.21,-0.77,1.82
8.300,1.24,1.57,-0.73,2.13
8.310,1.14,1.80,-0.48,2.19
8.321,0.99,1.83,-0.05,2.08
8.330,0.84,1.73,0.35,1.95
8.341,0.81,1.52,0.55,1.80
8.351,0.62,1.15,0.55,1.42
8.361,0.55,0.89,0.41,1.12
8.371,0.55,0.77,0.28,0.98
8.381,0.55,0.66,0.25,0.90
8.391,0.55,0.60,0.24,0.85
8.401,0.52,0.64,0.23,0.86
8.411,0.46,0.78,0.21,0.93
8.421,0.37,0.93,0.15,1.01
8.431,0.28,0.98,0.10,1.02
8.441,0.19,0.97,0.02,0.99
8.452,0.14,0.95,-0.05,0.96
8.462,0.17,0.94,-0.19,0.98
8.472,0.21,0.92,-0.35,1.01
8.482,0.23,0.94,-0.49,1.08
8.492,0.26,1.02,-0.63,1.22
8.502,0.21,1.02,-0.57,1.19
8.512,0.11,0.98,-0.16,1.00
8.522,0.06,0.96,0.47,1.07
8.532,0.01,0.86,1.15,1.43
8.542,-0.07,0.61,1.76,1.87
8.552,-0.18,0.24,2.14,2.16
8.562,-0.34,-0.17,2.12,2.15
8.572,-0.42,-0.46,1.70,1.81
8.583,-0.29,-0.57,1.01,1.20
8.592,-0.09,-0.64,0.09,0.65
8.603,0.04,-0.61,-0.75,0.97
8.613,0.14,-0.42,-1.27,1.34
8.623,0.26,-0.16,-1.48,1.51
8.633,0.36,0.11,-1.42,1.47
8.643,0.40,0.23,-1.06,1.16
8.653,0.36,0.13,-0.55,0.67
8.663,0.21,-0.10,-0.10,0.25
8.673,-0.01,-0.40,0.25,0.47
8.683,-0.10,-0.60,0.53,0.81
8.693,-0.16,-0.79,0.61,1.01
8.703,-0.21,-0.87,0.47,1.02
8.714,-0.18,-0.82,0.18,0.86
8.723,-0.08,-0.73,-0.16,0.75
8.734,0.04,-0.60,-0.40,0.72
8.744,0.10,-0.46,-0.47,0.67
8.754,0.14,-0.38,-0.52,0.66
8.764,0.26,-0.33,-0.57,0.71
8.774,0.35,-0.32,-0.51,0.69
8.784,0.34,-0.30,-0.34,0.57
8.794,0.26,-0.24,-0.14,0.38
8.804,0.25,-0.17,-0.07,0.31
8.814,0.37,-0.03,-0.12,0.39
8.824,0.46,0.08,-0.20,0.51
8.834,0.49,0.11,-0.32,0.59
8.844,0.55,0.12,-0.53,0.77
8.854,0.67,0.14,-0.79,1.05
8.864,0.77,0.18,-0.93,1.22
8.874,0.81,0.26,-0.83,1.19
8.885,0.79,0.36,-0.55,1.02
8.895,0.71,0.40,-0.22,0.84
8.905,0.60,0.37,0.13,0.72
8.915,0.47,0.34,0.43,0.73
8.925,0.38,0.35,0.60,0.79
8.935,0.30,0.39,0.65,0.82
8.945,0.17,0.42,0.58,0.74
8.955,0.13,0.43,0.33,0.56
8.965,0.21,0.46,-0.03,0.51
8.975,0.23,0.50,-0.40,0.68
8.985,0.15,0.50,-0.60,0.79
8.995,0.14,0.58,-0.67,0.90
9.006,0.20,0.69,-0.63,0.95
9.015,0.17,0.71,-0.51,0.89
9.026,0.16,0.75,-0.41,0.87
9.036,0.22,0.86,-0.34,0.95
9.046,0.21,0.96,-0.34,1.04
9.056,0.18,1.00,-0.36,1.08
9.066,0.21,1.00,-0.50,1.13
9.076,0.24,0.95,-0.67,1.19
9.086,0.24,0.87,-0.74,1.17
9.096,0.22,0.79,-0.65,1.05
9.106,0.21,0.75,-0.49,0.92
9.116,0.21,0.74,-0.37,0.85
9.126,0.21,0.70,-0.33,0.80
9.136,0.23,0.70,-0.36,0.82
9.146,0.22,0.77,-0.45,0.92
9.157,0.24,0.87,-0.59,1.08
9.167,0.31,0.96,-0.77,1.27
9.177,0.38,0.98,-0.93,1.40
9.187,0.47,1.00,-1.06,1.53
9.197,0.55,1.06,-1.14,1.66
9.207,0.59,1.09,-1.12,1.67
9.217,0.64,1.10,-1.03,1.64
9.227,0.70,1.12,-0.83,1.56
9.237,0.75,1.10,-0.52,1.43
9.247,0.78,1.01,-0.16,1.29
9.257,0.77,0.87,0.21,1.19
9.267,0.78,0.75,0.59,1.23
9.277,0.87,0.77,0.85,1.44
9.287,1.04,0.87,0.92,1.64
9.297,1.15,0.93,1.02,1.80
9.308,1.05,0.86,1.10,1.75
9.318,0.95,0.80,1.29,1.79
9.328,1.02,0.74,1.42,1.90
9.338,0.86,0.63,1.64,1.95
9.348,0.59,0.43,1.97,2.10
9.358,0.35,0.17,2.20,2.23
9.368,0.13,-0.05,2.26,2.26
9.378,-0.03,-0.21,2.13,2.14
9.388,-0.18,-0.36,1.82,1.87
9.398,-0.27,-0.40,1.39,1.48
9.408,-0.29,-0.38,0.92,1.04
9.418,-0.25,-0.37,0.55,0.71
9.429,-0.19,-0.35,0.39,0.56
9.439,-0.25,-0.38,0.30,0.54
9.449,-0.28,-0.46,0.20,0.57
9.459,-0.30,-0.53,0.16,0.63
9.469,-0.38,-0.65,0.17,0.78
9.479,-0.44,-0.81,0.20,0.94
9.489,-0.52,-0.91,0.18,1.06
9.499,-0.59,-0.99,0.07,1.15
9.509,-0.55,-1.00,-0.18,1.16
9.519,-0.50,-0.97,-0.50,1.20
9.529,-0.48,-0.95,-0.73,1.29
9.539,-0.46,-0.93,-0.86,1.35
9.549,-0.42,-0.87,-1.01,1.40
9.560,-0.29,-0.80,-1.12,1.41
9.570,-0.21,-0.74,-1.08,1.33
9.580,-0.23,-0.75,-0.97,1.24
9.590,-0.27,-0.81,-0.88,1.23
9.600,-0.33,-0.88,-0.81,1.24
9.610,-0.47,-0.88,-0.68,1.21
9.620,-0.54,-0.81,-0.60,1.14
9.630,-0.56,-0.72,-0.54,1.06
9.640,-0.59,-0.60,-0.48,0.97
9.650,-0.63,-0.52,-0.30,0.87
9.660,-0.71,-0.43,-0.11,0.84
9.670,-0.72,-0.38,0.06,0.81
9.680,-0.63,-0.30,0.11,0.71
9.690,-0.55,-0.19,-0.01,0.59
9.700,-0.46,-0.09,-0.19,0.51
9.711,-0.38,0.03,-0.33,0.50
9.721,-0.35,0.17,-0.38,0.55
9.731,-0.24,0.30,-0.40,0.55
9.741,-0.16,0.36,-0.33,0.51
9.751,-0.13,0.36,-0.23,0.45
9.761,-0.10,0.36,-0.13,0.40
9.771,-0.09,0.37,-0.05,0.38
9.781,-0.08,0.39,-0.07,0.40
9.791,-0.00,0.42,-0.20,0.46
9.801,0.05,0.46,-0.34,0.57
9.811,0.02,0.44,-0.45,0.63
9.821,0.05,0.41,-0.54,0.68
9.831,0.09,0.42,-0.61,0.74
9.841,0.12,0.46,-0.61,0.77
9.852,0.15,0.55,-0.54,0.79
9.862,0.18,0.65,-0.44,0.80
9.872,0.15,0.67,-0.36,0.78
9.882,0.11,0.64,-0.33,0.73
9.892,0.10,0.62,-0.31,0.70
9.902,0.07,0.62,-0.30,0.69
9.912,0.03,0.61,-0.28,0.67
9.922,0.02,0.62,-0.30,0.69
9.932,0.05,0.66,-0.32,0.74
9.942,0.07,0.75,-0.30,0.81
9.952,0.10,0.85,-0.29,0.91
9.962,0.09,0.88,-0.27,0.92
9.973,0.09,0.88,-0.25,0.92
9.982,0.08,0.90,-0.26,0.95
9.993,0.09,0.92,-0.30,0.97
10.003,0.10,0.96,-0.30,1.01
10.013,0.07,0.98,-0.25,1.01
10.023,0.06,1.00,-0.20,1.02
10.033,0.03,1.02,-0.13,1.03
10.043,-0.00,1.00,-0.07,1.01
10.053,-0.02,0.96,0.00,0.96
10.063,-0.03,0.90,0.08,0.91
10.073,-0.04,0.85,0.15,0.86
10.083,-0.05,0.78,0.25,0.82
10.093,-0.05,0.71,0.33,0.78
10.104,0.09,0.77,0.29,0.83
10.113,0.28,0.95,0.10,1.00
10.124,0.35,1.01,0.11,1.07
10.134,0.27,0.88,0.37,0.99
10.144,0.15,0.74,0.70,1.03
10.154,0.20,0.80,1.06,1.34
10.164,0.16,0.85,1.45,1.69
10.174,-0.05,0.63,2.00,2.10
10.184,-0.31,0.16,2.70,2.72
10.194,-0.55,-0.30,3.22,3.28
10.204,-0.62,-0.63,3.41,3.52
10.214,-0.73,-1.01,3.23,3.46
10.224,-0.84,-1.35,2.58,3.03
10.234,-0.70,-1.44,1.62,2.28
10.244,-0.48,-1.38,0.63,1.59
10.255,-0.26,-1.22,-0.18,1.26
10.265,-0.12,-1.05,-0.76,1.30
10.275,0.01,-1.01,-1.07,1.48
10.285,0.09,-1.04,-1.11,1.53
10.295,0.00,-1.05,-0.94,1.40
10.305,-0.16,-1.11,-0.61,1.28
10.315,-0.36,-1.29,-0.32,1.37
10.325,-0.49,-1.42,-0.09,1.51
10.335,-0.53,-1.45,0.07,1.55
10.345,-0.48,-1.39,0.05,1.47
10.355,-0.43,-1.28,-0.02,1.36
10.365,-0.29,-1.14,-0.11,1.18
10.375,-0.06,-1.04,-0.25,1.07
10.386,0.16,-1.08,-0.38,1.16
10.396,0.24,-1.25,-0.36,1.32
10.406,0.16,-1.56,-0.16,1.58
10.416,0.03,-1.83,0.09,1.83
10.426,-0.07,-1.98,0.40,2.02
10.436,-0.18,-1.99,0.67,2.11
10.446,-0.29,-1.92,0.87,2.13
10.456,-0.27,-1.70,1.03,2.00
10.466,-0.27,-1.49,1.02,1.83
10.476,-0.28,-1.24,0.81,1.51
10.486,-0.22,-1.05,0.55,1.20
10.497,-0.24,-1.03,0.28,1.09
10.506,-0.29,-1.04,0.01,1.08
10.517,-0.23,-1.02,-0.30,1.09
10.526,-0.16,-1.03,-0.56,1.18
10.537,-0.09,-0.97,-0.67,1.18
10.547,-0.17,-0.81,-0.57,1.01
10.557,-0.23,-0.56,-0.43,0.74
10.567,-0.18,-0.33,-0.40,0.55
10.577,-0.12,-0.24,-0.40,0.48
10.587,-0.02,-0.25,-0.27,0.37
10.597,0.04,-0.38,-0.12,0.40
10.607,-0.02,-0.61,0.09,0.61
10.617,-0.14,-0.72,0.19,0.76
10.627,-0.20,-0.65,0.33,0.76
10.637,-0.12,-0.51,0.33,0.61
10.648,-0.10,-0.47,0.26,0.54
10.657,-0.00,-0.55,0.24,0.60
10.668,0.01,-0.70,0.24,0.74
10.678,0.01,-0.68,0.17,0.70
10.688,0.06,-0.48,0.08,0.48
10.698,-0.02,-0.22,-0.01,0.22
10.708,0.02,0.07,-0.06,0.09
10.718,0.09,0.30,-0.05,0.32
10.728,0.02,0.38,-0.07,0.38
10.738,-0.08,0.38,-0.02,0.39
10.748,-0.16,0.29,0.01,0.33
10.758,-0.12,0.22,0.11,0.28
10.768,-0.25,-0.05,0.20,0.33
10.779,-0.16,-0.28,0.22,0.39
10.788,-0.11,-0.50,0.25,0.57
10.799,-0.09,-0.70,0.24,0.75
10.809,-0.07,-0.76,0.07,0.77
10.819,0.02,-0.62,0.14,0.64
10.829,0.16,-0.44,0.53,0.70
10.839,-0.50,-0.22,-0.14,0.57
10.849,-0.16,0.22,-0.15,0.31
10.859,0.32,0.42,0.05,0.53
10.869,0.08,0.66,0.09,0.67
10.879,0.05,0.89,-0.08,0.89
10.889,0.53,0.95,-0.83,1.37
10.899,0.46,0.44,-0.83,1.05
10.909,-0.20,-0.48,-0.56,0.76
10.919,-0.20,-0.79,-0.52,0.96
10.929,-0.04,-0.57,-0.39,0.69
10.939,-0.10,-0.11,-0.06,0.16
10.950,-0.08,0.30,0.28,0.42
10.960,-0.10,0.35,0.66,0.75
10.970,-0.19,0.27,0.87,0.93
10.980,-0.22,0.18,0.89,0.93
10.990,-0.18,0.06,0.62,0.65
11.000,-0.15,-0.27,0.13,0.33
11.010,-0.09,-0.23,-0.36,0.44
11.021,0.35,-0.26,-0.71,0.83
11.030,0.17,-0.44,-0.75,0.88
11.040,0.10,-0.42,-0.54,0.70
