time,ax,ay,az,atotal
0.000,0.13,0.12,-0.43,0.46
0.010,0.07,0.08,-0.22,0.24
0.020,-0.03,0.03,0.09,0.10
0.030,-0.11,0.08,0.33,0.35
0.040,-0.21,0.13,0.51,0.57
0.050,-0.29,0.10,0.59,0.66
0.060,-0.31,0.11,0.53,0.62
0.071,-0.32,0.14,0.40,0.54
0.081,-0.25,0.23,0.22,0.41
0.091,-0.20,0.32,0.04,0.38
0.101,-0.14,0.38,-0.11,0.42
0.111,-0.17,0.40,-0.28,0.52
0.121,-0.22,0.43,-0.34,0.59
0.131,-0.20,0.35,-0.43,0.59
0.141,-0.20,0.23,-0.59,0.66
0.151,-0.18,0.20,-0.69,0.74
0.161,-0.14,0.16,-0.79,0.81
0.171,-0.12,0.10,-0.79,0.81
0.181,-0.11,0.11,-0.71,0.73
0.191,-0.09,0.04,-0.56,0.56
0.202,-0.16,0.07,-0.30,0.35
0.212,-0.20,0.33,-0.03,0.39
0.222,-0.29,0.38,0.18,0.51
0.232,-0.32,0.47,0.23,0.62
0.242,-0.28,0.42,0.22,0.55
0.252,-0.24,0.36,0.24,0.50
0.262,-0.13,0.31,0.12,0.36
0.272,-0.09,0.26,0.08,0.28
0.282,-0.13,0.27,0.10,0.32
0.292,-0.08,0.24,0.04,0.25
0.302,-0.02,0.15,0.00,0.15
0.312,0.04,0.04,-0.06,0.08
0.322,0.11,0.05,-0.03,0.12
0.333,0.07,0.17,0.01,0.18
0.343,0.01,-0.18,-0.30,0.35
0.353,-0.07,-0.21,-0.35,0.42
0.363,-0.04,-0.01,-0.19,0.20
0.373,-0.06,0.18,-0.00,0.19
0.383,-0.19,0.39,0.20,0.48
0.393,-0.37,0.66,0.42,0.87
0.403,-0.28,0.63,0.07,0.70
0.413,-0.30,0.54,-0.10,0.63
0.423,-0.35,0.46,-0.21,0.62
0.433,-0.34,0.31,-0.23,0.52
0.443,-0.35,0.19,-0.16,0.42
0.453,-0.30,0.23,-0.12,0.40
0.463,-0.19,0.31,-0.10,0.38
0.473,-0.03,0.42,-0.18,0.46
0.484,0.13,0.53,-0.34,0.64
0.494,0.20,0.62,-0.25,0.70
0.504,0.20,0.64,-0.06,0.67
0.514,0.23,0.59,0.07,0.64
0.524,0.27,0.58,0.15,0.66
0.534,0.34,0.58,0.11,0.68
0.544,0.38,0.55,0.01,0.67
0.554,0.38,0.55,-0.10,0.68
0.564,0.43,0.63,-0.18,0.79
0.574,0.44,0.68,-0.23,0.84
0.584,0.43,0.64,-0.28,0.82
0.594,0.37,0.61,-0.30,0.77
0.604,0.34,0.64,-0.24,0.77
0.615,0.29,0.69,-0.16,0.77
0.624,0.31,0.69,-0.11,0.76
0.635,0.29,0.60,0.02,0.67
0.645,0.20,0.49,0.24,0.58
0.655,0.14,0.31,0.38,0.51
0.665,0.11,0.11,0.38,0.42
0.675,0.02,-0.16,0.34,0.38
0.685,-0.06,-0.30,0.31,0.44
0.695,-0.06,-0.21,0.18,0.28
0.705,-0.19,-0.01,0.08,0.21
0.715,-0.32,0.11,-0.25,0.42
0.725,-0.20,0.37,-0.70,0.81
0.736,0.06,0.86,-0.92,1.27
0.745,0.30,1.34,-1.05,1.73
0.756,0.42,1.47,-1.03,1.85
0.766,0.41,1.34,-0.91,1.67
0.776,0.36,1.08,-0.79,1.39
0.786,0.30,0.85,-0.68,1.13
0.796,0.22,0.80,-0.62,1.04
0.806,0.20,0.94,-0.63,1.15
0.816,0.23,1.06,-0.66,1.27
0.826,0.24,1.10,-0.64,1.29
0.836,0.23,1.11,-0.60,1.28
0.846,0.23,1.12,-0.53,1.26
0.856,0.32,1.17,-0.46,1.30
0.866,0.39,1.17,-0.42,1.30
0.876,0.45,1.11,-0.37,1.25
0.886,0.44,1.03,-0.24,1.15
0.897,0.32,0.97,-0.08,1.03
0.907,0.30,0.96,-0.04,1.01
0.917,0.34,1.00,-0.10,1.07
0.927,0.37,1.08,-0.21,1.16
0.937,0.41,1.18,-0.25,1.27
0.947,0.44,1.24,-0.31,1.35
0.957,0.49,1.24,-0.36,1.38
0.967,0.51,1.22,-0.34,1.37
0.977,0.47,1.20,-0.30,1.32
0.987,0.43,1.17,-0.24,1.27
0.997,0.39,1.18,-0.17,1.26
1.007,0.30,1.18,-0.13,1.22
1.018,0.28,1.13,-0.15,1.17
1.027,0.28,1.10,-0.19,1.15
1.037,0.26,1.06,-0.25,1.12
1.048,0.28,0.99,-0.38,1.10
1.058,0.39,0.99,-0.48,1.17
1.068,0.51,1.04,-0.54,1.28
1.078,0.62,1.04,-0.57,1.34
1.088,0.72,0.98,-0.46,1.30
1.098,0.71,0.97,-0.22,1.22
1.108,0.56,0.97,0.13,1.13
1.118,0.54,1.07,0.51,1.30
1.128,0.37,1.13,0.96,1.53
1.139,0.11,0.98,1.46,1.76
1.148,-0.11,0.73,1.86,2.00
1.158,-0.21,0.47,2.05,2.11
1.169,-0.29,0.21,2.00,2.03
1.179,-0.38,-0.04,1.83,1.87
1.189,-0.48,-0.32,1.50,1.61
1.199,-0.52,-0.59,1.10,1.35
1.209,-0.36,-0.72,0.55,0.98
1.219,-0.19,-0.72,0.04,0.75
1.229,-0.11,-0.74,-0.29,0.80
1.239,-0.09,-0.78,-0.41,0.89
1.249,-0.15,-0.81,-0.38,0.91
1.259,-0.22,-0.85,-0.33,0.93
1.269,-0.27,-0.91,-0.32,1.00
1.279,-0.32,-0.97,-0.37,1.08
1.289,-0.35,-0.98,-0.43,1.13
1.300,-0.33,-0.90,-0.49,1.08
1.309,-0.33,-0.81,-0.56,1.04
1.320,-0.39,-0.71,-0.55,0.98
1.330,-0.49,-0.60,-0.51,0.93
1.340,-0.58,-0.50,-0.48,0.91
1.350,-0.59,-0.37,-0.40,0.80
1.360,-0.61,-0.22,-0.32,0.72
1.370,-0.61,-0.13,-0.22,0.66
1.380,-0.65,-0.15,-0.12,0.67
1.390,-0.70,-0.23,0.05,0.74
1.401,-0.83,-0.35,0.28,0.94
1.410,-0.96,-0.41,0.55,1.18
1.420,-1.02,-0.46,0.77,1.36
1.431,-1.05,-0.55,0.88,1.48
1.440,-1.01,-0.62,0.85,1.46
1.451,-0.93,-0.68,0.71,1.36
1.461,-0.85,-0.73,0.51,1.23
1.471,-0.80,-0.79,0.29,1.16
1.481,-0.70,-0.77,0.04,1.04
1.491,-0.66,-0.69,-0.21,0.98
1.501,-0.59,-0.61,-0.41,0.94
1.511,-0.57,-0.50,-0.55,0.94
1.521,-0.52,-0.39,-0.70,0.96
1.531,-0.42,-0.32,-0.86,1.01
1.541,-0.35,-0.29,-1.04,1.14
1.551,-0.27,-0.28,-1.25,1.31
1.561,-0.23,-0.30,-1.37,1.42
1.572,-0.24,-0.28,-1.37,1.42
1.581,-0.26,-0.14,-1.31,1.35
1.592,-0.18,-0.03,-1.25,1.26
1.602,-0.04,-0.01,-1.16,1.16
1.612,0.02,-0.02,-1.03,1.03
1.622,0.02,-0.09,-0.87,0.87
1.632,-0.03,-0.12,-0.69,0.70
1.642,-0.08,-0.09,-0.52,0.54
1.652,-0.05,0.04,-0.52,0.52
1.662,0.02,0.22,-0.61,0.65
1.672,0.05,0.40,-0.62,0.74
1.682,0.01,0.59,-0.60,0.84
1.692,0.03,0.79,-0.63,1.01
1.702,0.07,0.97,-0.62,1.15
1.712,0.07,1.12,-0.49,1.22
1.723,0.01,1.20,-0.28,1.23
1.733,-0.02,1.20,-0.23,1.22
1.743,0.03,1.27,-0.25,1.29
1.753,0.08,1.36,-0.24,1.39
1.763,0.09,1.44,-0.16,1.45
1.773,0.14,1.48,-0.10,1.49
1.783,0.15,1.43,-0.02,1.44
1.793,0.12,1.31,0.17,1.33
1.803,0.09,1.24,0.34,1.29
1.813,0.09,1.22,0.44,1.30
1.823,0.10,1.19,0.49,1.29
1.833,0.08,1.18,0.51,1.28
1.843,0.05,1.21,0.49,1.30
1.854,0.08,1.24,0.41,1.31
1.864,0.15,1.33,0.24,1.36
1.874,0.22,1.42,0.07,1.43
1.884,0.25,1.41,0.03,1.43
1.894,0.24,1.31,0.22,1.35
1.904,0.20,1.21,0.55,1.34
1.914,0.05,1.05,0.85,1.35
1.924,-0.01,0.95,1.18,1.51
1.934,0.04,0.88,1.46,1.71
1.944,0.02,0.72,1.69,1.84
1.954,-0.00,0.43,1.81,1.86
1.964,-0.02,0.10,1.73,1.73
1.974,-0.03,-0.18,1.49,1.50
1.985,0.04,-0.34,1.11,1.16
1.994,0.13,-0.45,0.73,0.87
2.005,0.16,-0.49,0.42,0.67
2.015,0.13,-0.54,0.23,0.60
2.025,0.09,-0.61,0.11,0.63
2.035,0.03,-0.66,0.03,0.66
2.045,-0.02,-0.71,0.00,0.71
2.055,-0.09,-0.77,-0.07,0.78
2.065,-0.07,-0.81,-0.13,0.83
2.075,-0.10,-0.89,-0.14,0.91
2.085,-0.08,-0.93,-0.21,0.96
2.095,-0.03,-0.90,-0.37,0.97
2.105,0.01,-0.86,-0.57,1.03
2.116,0.09,-0.80,-0.73,1.09
2.125,0.21,-0.71,-0.87,1.15
2.136,0.33,-0.63,-0.99,1.22
2.146,0.43,-0.58,-1.01,1.24
2.156,0.48,-0.56,-0.86,1.13
2.166,0.45,-0.62,-0.51,0.92
2.176,0.37,-0.75,-0.03,0.84
2.186,0.30,-0.78,0.56,1.01
2.196,0.22,-0.64,1.12,1.31
2.206,0.19,-0.45,1.56,1.63
2.216,0.13,-0.36,1.79,1.83
2.226,0.02,-0.40,1.81,1.85
2.236,-0.08,-0.47,1.63,1.70
2.246,-0.16,-0.54,1.26,1.39
2.256,-0.15,-0.59,0.77,0.98
2.267,-0.09,-0.57,0.28,0.64
2.277,-0.05,-0.48,-0.19,0.52
2.287,0.03,-0.34,-0.58,0.68
2.297,0.13,-0.18,-0.89,0.92
2.307,0.25,-0.08,-1.08,1.11
2.317,0.32,-0.07,-1.09,1.13
2.327,0.29,-0.11,-0.96,1.01
2.337,0.25,-0.18,-0.83,0.89
2.347,0.15,-0.25,-0.64,0.70
2.357,0.08,-0.27,-0.50,0.57
2.367,0.07,-0.28,-0.44,0.53
2.377,0.10,-0.26,-0.45,0.53
2.387,0.11,-0.27,-0.50,0.58
2.398,0.07,-0.33,-0.52,0.62
2.408,0.04,-0.37,-0.46,0.59
2.418,0.02,-0.32,-0.41,0.52
2.428,0.03,-0.22,-0.42,0.48
2.438,0.02,-0.11,-0.44,0.46
2.448,-0.01,0.05,-0.48,0.48
2.458,-0.03,0.22,-0.56,0.60
2.468,-0.02,0.37,-0.66,0.75
2.478,-0.01,0.49,-0.75,0.90
2.488,0.02,0.57,-0.81,0.99
2.498,0.00,0.66,-0.82,1.05
2.508,-0.00,0.78,-0.81,1.13
2.518,0.06,0.92,-0.80,1.22
2.529,0.11,0.99,-0.82,1.29
2.538,0.11,1.00,-0.85,1.31
2.549,0.13,0.93,-0.87,1.28
2.559,0.14,0.86,-0.85,1.22
2.569,-0.01,0.82,-0.59,1.01
2.579,-0.09,0.87,-0.35,0.94
2.589,0.11,0.95,-0.30,1.00
2.599,0.28,0.94,-0.35,1.04
2.609,0.29,0.83,-0.30,0.92
2.619,0.13,0.62,-0.05,0.64
2.629,0.05,0.53,0.31,0.61
2.639,0.08,0.52,0.69,0.87
2.649,0.07,0.50,1.13,1.24
2.659,-0.02,0.47,1.58,1.65
2.670,-0.20,0.32,1.97,2.00
2.679,-0.49,0.05,2.25,2.30
2.690,-0.81,-0.30,2.34,2.49
2.700,-1.03,-0.54,2.23,2.52
2.710,-1.13,-0.64,1.98,2.37
2.720,-1.12,-0.66,1.51,2.00
2.730,-1.03,-0.65,0.98,1.57
2.740,-0.94,-0.63,0.55,1.26
2.750,-0.98,-0.73,0.17,1.24
2.760,-1.00,-0.87,-0.14,1.33
2.770,-0.93,-0.94,-0.36,1.37
2.780,-0.89,-0.98,-0.59,1.45
2.790,-0.84,-1.02,-0.85,1.57
2.800,-0.77,-1.10,-1.06,1.71
2.811,-0.69,-1.14,-1.16,1.76
2.820,-0.61,-1.07,-1.08,1.64
2.831,-0.63,-0.94,-0.85,1.41
2.841,-0.63,-0.81,-0.62,1.20
2.851,-0.54,-0.73,-0.53,1.05
2.861,-0.53,-0.68,-0.42,0.96
2.871,-0.58,-0.64,-0.35,0.93
2.881,-0.60,-0.60,-0.30,0.90
2.891,-0.63,-0.54,-0.31,0.89
2.901,-0.64,-0.45,-0.33,0.85
2.911,-0.65,-0.38,-0.34,0.82
2.921,-0.69,-0.33,-0.32,0.82
2.931,-0.69,-0.28,-0.33,0.81
2.941,-0.62,-0.21,-0.39,0.76
2.952,-0.59,-0.20,-0.47,0.78
2.962,-0.53,-0.21,-0.57,0.81
2.972,-0.44,-0.21,-0.67,0.83
2.982,-0.35,-0.16,-0.79,0.88
2.992,-0.27,-0.08,-0.85,0.90
3.002,-0.18,0.03,-0.89,0.91
3.012,-0.13,0.17,-0.89,0.91
3.022,-0.03,0.33,-0.85,0.92
3.032,0.05,0.51,-0.76,0.91
3.042,0.13,0.58,-0.66,0.89
3.052,0.19,0.58,-0.57,0.84
3.062,0.22,0.57,-0.44,0.75
3.072,0.17,0.55,-0.27,0.63
3.083,0.10,0.55,-0.08,0.56
3.093,0.10,0.56,0.03,0.57
3.103,0.10,0.54,0.07,0.55
3.113,0.14,0.56,0.08,0.58
3.123,0.15,0.62,0.10,0.65
3.133,0.24,0.78,0.15,0.83
3.143,0.28,0.92,0.34,1.02
3.153,0.17,0.91,0.51,1.06
3.163,0.05,0.86,0.54,1.01
3.173,0.04,0.83,0.38,0.91
3.183,0.13,0.96,0.23,0.99
3.193,0.16,1.04,0.19,1.07
3.203,0.17,1.02,0.31,1.08
3.214,0.18,0.97,0.42,1.07
3.223,0.19,0.91,0.54,1.07
3.234,0.10,0.84,0.65,1.06
3.244,0.02,0.72,0.73,1.03
3.254,-0.07,0.58,0.83,1.02
3.264,-0.14,0.51,0.94,1.08
3.274,-0.24,0.48,1.00,1.14
3.284,-0.15,0.58,1.00,1.17
3.294,-0.02,0.75,0.86,1.14
3.304,0.10,0.89,0.69,1.14
3.314,0.40,1.06,0.54,1.26
3.324,0.73,1.21,0.36,1.46
3.334,0.92,1.28,0.29,1.60
3.345,0.97,1.29,0.33,1.65
3.355,0.79,1.12,0.60,1.49
3.364,0.50,0.80,1.04,1.40
3.375,0.25,0.49,1.53,1.62
3.385,0.03,0.17,1.82,1.83
3.395,-0.20,-0.28,1.74,1.77
3.405,-0.12,-0.58,1.62,1.73
3.415,-0.03,-0.86,1.41,1.65
3.425,-0.03,-1.13,1.12,1.59
3.435,-0.10,-1.31,0.77,1.53
3.445,-0.14,-1.37,0.38,1.42
3.455,-0.17,-1.34,-0.04,1.35
3.465,-0.13,-1.20,-0.45,1.29
3.475,-0.13,-1.08,-0.83,1.37
3.485,-0.07,-0.96,-1.20,1.54
3.496,0.07,-0.81,-1.51,1.72
3.505,0.25,-0.66,-1.64,1.79
3.516,0.35,-0.57,-1.60,1.73
3.526,0.42,-0.58,-1.43,1.59
3.536,0.50,-0.65,-1.16,1.42
3.546,0.58,-0.68,-0.81,1.21
3.556,0.57,-0.68,-0.47,1.01
3.566,0.57,-0.66,-0.15,0.88
3.576,0.51,-0.66,0.17,0.85
3.586,0.44,-0.60,0.54,0.92
3.596,0.36,-0.47,0.96,1.13
3.606,0.29,-0.38,1.32,1.41
3.616,0.19,-0.41,1.58,1.65
3.627,0.08,-0.57,1.77,1.86
3.637,0.01,-0.77,1.75,1.91
3.646,-0.08,-0.98,1.53,1.82
3.657,-0.12,-1.13,1.14,1.61
3.667,-0.15,-1.20,0.70,1.40
3.677,-0.12,-1.18,0.21,1.21
3.687,-0.11,-1.10,-0.22,1.13
3.697,-0.07,-0.99,-0.57,1.15
3.707,-0.03,-0.85,-0.81,1.17
3.717,0.01,-0.69,-0.93,1.15
3.727,-0.00,-0.48,-0.92,1.04
3.737,0.03,-0.28,-0.96,1.00
3.747,0.06,-0.15,-1.01,1.03
3.758,0.07,-0.09,-0.98,0.98
3.767,-0.03,-0.10,-0.89,0.90
3.778,-0.10,-0.15,-0.84,0.85
3.788,-0.12,-0.15,-0.80,0.82
3.798,-0.10,-0.11,-0.74,0.76
3.808,-0.07,-0.04,-0.62,0.63
3.818,-0.12,-0.02,-0.47,0.48
3.828,-0.10,-0.00,-0.35,0.37
3.838,-0.07,0.06,-0.18,0.20
3.848,-0.13,0.06,-0.14,0.20
3.858,-0.14,0.05,-0.14,0.20
3.868,-0.14,0.04,-0.21,0.25
3.878,-0.12,0.02,-0.26,0.29
3.888,-0.07,0.02,-0.37,0.38
3.898,0.02,0.08,-0.48,0.49
3.908,0.12,0.22,-0.56,0.61
3.919,0.19,0.36,-0.58,0.71
3.929,0.25,0.49,-0.61,0.82
3.939,0.36,0.61,-0.64,0.95
3.949,0.38,0.65,-0.62,0.98
3.959,0.37,0.65,-0.54,0.93
3.969,0.40,0.69,-0.44,0.91
3.979,0.33,0.76,-0.26,0.86
3.989,0.25,0.75,-0.10,0.80
3.999,0.18,0.69,0.05,0.72
4.009,0.17,0.71,0.13,0.74
4.019,0.31,0.81,0.09,0.87
4.029,0.49,0.89,-0.05,1.02
4.039,0.58,0.90,-0.10,1.07
4.050,0.59,0.85,-0.01,1.04
4.060,0.54,0.83,0.22,1.01
4.070,0.50,0.85,0.55,1.12
4.080,0.42,0.88,0.92,1.34
4.090,0.31,0.87,1.28,1.58
4.100,0.13,0.76,1.60,1.78
4.110,-0.02,0.54,1.76,1.84
4.120,-0.12,0.26,1.78,1.81
4.130,-0.22,-0.01,1.63,1.64
4.140,-0.26,-0.28,1.27,1.32
4.150,-0.26,-0.50,0.78,0.96
4.160,-0.20,-0.61,0.31,0.71
4.170,0.01,-0.56,0.21,0.60
4.181,-0.20,-0.74,0.06,0.77
4.191,-0.37,-0.82,-0.13,0.91
4.201,-0.32,-0.79,-0.50,0.99
4.211,-0.16,-0.79,-0.93,1.23
4.221,-0.04,-0.83,-1.23,1.48
4.231,0.05,-0.82,-1.21,1.47
4.241,0.02,-0.77,-0.93,1.20
4.251,-0.06,-0.74,-0.54,0.92
4.261,-0.07,-0.74,-0.25,0.79
4.271,-0.05,-0.67,-0.07,0.67
4.281,-0.02,-0.51,0.09,0.52
4.291,-0.07,-0.37,0.25,0.45
4.301,-0.17,-0.28,0.42,0.53
4.312,-0.21,-0.19,0.52,0.59
4.322,-0.23,-0.12,0.56,0.62
4.332,-0.24,-0.17,0.55,0.62
4.342,-0.26,-0.31,0.42,0.59
4.352,-0.27,-0.48,0.30,0.63
4.362,-0.32,-0.61,0.15,0.71
4.372,-0.31,-0.76,-0.04,0.82
4.382,-0.26,-0.85,-0.25,0.92
4.392,-0.19,-0.86,-0.46,0.99
4.402,-0.13,-0.84,-0.67,1.08
4.412,-0.08,-0.78,-0.82,1.13
4.422,-0.07,-0.67,-0.91,1.13
4.432,-0.05,-0.46,-0.92,1.03
4.442,-0.10,-0.27,-0.83,0.88
4.452,-0.15,-0.18,-0.69,0.73
4.462,-0.16,-0.11,-0.56,0.60
4.473,-0.21,0.11,-0.45,0.51
4.483,-0.24,0.44,-0.39,0.63
4.493,-0.23,0.74,-0.39,0.87
4.503,-0.22,1.00,-0.46,1.12
4.513,-0.25,1.16,-0.56,1.32
4.523,-0.26,1.26,-0.64,1.44
4.533,-0.27,1.31,-0.67,1.50
4.543,-0.31,1.29,-0.65,1.48
4.553,-0.37,1.20,-0.58,1.38
4.563,-0.43,1.05,-0.48,1.23
4.573,-0.42,0.95,-0.41,1.12
4.584,-0.39,0.89,-0.36,1.04
4.593,-0.38,0.82,-0.32,0.96
4.604,-0.41,0.78,-0.25,0.92
4.614,-0.39,0.81,-0.21,0.92
4.624,-0.31,0.88,-0.15,0.95
4.634,-0.27,0.93,-0.10,0.98
4.644,-0.27,0.95,-0.03,0.99
4.654,-0.26,0.96,0.00,0.99
4.664,-0.22,0.99,0.05,1.02
4.674,-0.18,1.03,0.15,1.06
4.684,-0.14,1.01,0.30,1.07
4.694,-0.12,0.97,0.45,1.08
4.704,-0.03,0.96,0.52,1.10
4.714,0.10,1.00,0.43,1.10
4.724,0.25,1.07,0.31,1.14
4.735,0.41,1.15,0.41,1.28
4.745,0.37,1.05,0.52,1.23
4.755,0.34,1.00,0.69,1.26
4.765,0.37,1.04,0.88,1.41
4.775,0.32,0.97,1.13,1.52
4.785,0.16,0.76,1.54,1.73
4.795,-0.05,0.40,1.93,1.97
4.805,-0.20,0.04,2.18,2.19
4.815,-0.37,-0.30,2.22,2.27
4.825,-0.47,-0.59,2.00,2.14
4.835,-0.46,-0.77,1.57,1.81
4.845,-0.35,-0.79,0.96,1.29
4.855,-0.19,-0.73,0.30,0.81
4.866,-0.04,-0.69,-0.21,0.72
4.875,0.07,-0.68,-0.54,0.87
4.886,0.17,-0.71,-0.64,0.97
4.896,0.17,-0.85,-0.61,1.06
4.906,0.16,-0.94,-0.45,1.05
4.916,0.12,-0.91,-0.30,0.97
4.926,0.04,-0.91,-0.18,0.93
4.936,0.07,-0.88,-0.16,0.89
4.946,0.13,-0.86,-0.29,0.91
4.956,0.22,-0.86,-0.48,1.01
4.966,0.35,-0.85,-0.70,1.16
4.976,0.45,-0.87,-0.89,1.33
4.986,0.56,-0.88,-0.98,1.43
4.996,0.62,-0.88,-0.89,1.39
5.006,0.63,-0.86,-0.73,1.29
5.017,0.68,-0.82,-0.47,1.16
5.027,0.71,-0.79,-0.09,1.07
5.037,0.66,-0.74,0.36,1.06
5.047,0.59,-0.70,0.82,1.23
5.057,0.45,-0.70,1.19,1.46
5.067,0.31,-0.71,1.43,1.63
5.077,0.17,-0.73,1.60,1.76
5.087,0.00,-0.83,1.63,1.83
5.097,-0.10,-0.92,1.52,1.78
5.107,-0.17,-0.95,1.34,1.66
5.117,-0.22,-0.94,1.08,1.45
5.128,-0.23,-0.92,0.73,1.19
5.137,-0.24,-0.91,0.31,0.99
5.147,-0.23,-0.87,-0.08,0.90
5.158,-0.21,-0.78,-0.41,0.91
5.168,-0.22,-0.69,-0.68,0.99
5.178,-0.21,-0.56,-0.88,1.07
5.188,-0.17,-0.41,-0.96,1.06
5.198,-0.22,-0.30,-0.97,1.04
5.208,-0.25,-0.24,-0.95,1.01
5.218,-0.24,-0.13,-0.92,0.96
5.228,-0.23,-0.01,-0.91,0.94
5.238,-0.21,0.09,-0.87,0.90
5.248,-0.22,0.16,-0.80,0.84
5.258,-0.22,0.17,-0.75,0.80
5.269,-0.21,0.14,-0.72,0.77
5.279,-0.19,0.09,-0.66,0.70
5.289,-0.21,0.08,-0.59,0.63
5.299,-0.20,0.07,-0.55,0.59
5.309,-0.17,0.08,-0.53,0.57
5.319,-0.16,0.15,-0.50,0.54
5.329,-0.13,0.26,-0.45,0.54
5.339,-0.09,0.35,-0.39,0.54
5.349,-0.07,0.40,-0.34,0.53
5.359,-0.04,0.39,-0.34,0.51
5.369,-0.01,0.37,-0.30,0.48
5.379,0.02,0.37,-0.29,0.47
5.389,0.10,0.40,-0.32,0.52
5.399,0.16,0.46,-0.33,0.59
5.410,0.14,0.52,-0.27,0.60
5.420,0.11,0.56,-0.22,0.61
5.430,0.12,0.60,-0.24,0.66
5.440,0.15,0.68,-0.20,0.72
5.450,0.22,0.81,-0.20,0.87
5.460,0.35,0.96,-0.25,1.05
5.470,0.42,1.03,-0.25,1.14
5.480,0.38,0.99,-0.15,1.07
5.490,0.32,0.87,0.01,0.93
5.500,0.29,0.78,0.21,0.86
5.510,0.29,0.79,0.50,0.98
5.520,0.15,0.81,0.87,1.20
5.530,-0.08,0.70,1.27,1.45
5.540,-0.36,0.48,1.57,1.68
5.551,-0.61,0.21,1.63,1.76
5.561,-0.87,-0.09,1.51,1.74
5.571,-1.03,-0.39,1.23,1.65
5.581,-1.09,-0.56,0.85,1.49
5.591,-1.05,-0.60,0.48,1.30
5.601,-0.97,-0.61,0.16,1.15
5.611,-0.88,-0.65,-0.08,1.09
5.621,-0.82,-0.75,-0.23,1.13
5.631,-0.82,-0.88,-0.27,1.23
5.641,-0.83,-0.98,-0.29,1.32
5.651,-0.80,-0.98,-0.31,1.31
5.661,-0.76,-0.90,-0.30,1.22
5.671,-0.75,-0.84,-0.26,1.15
5.681,-0.72,-0.81,-0.28,1.12
5.691,-0.63,-0.77,-0.36,1.06
5.702,-0.56,-0.68,-0.34,0.95
5.711,-0.57,-0.61,-0.26,0.88
5.722,-0.53,-0.53,-0.30,0.81
5.732,-0.39,-0.48,-0.39,0.73
5.742,-0.30,-0.41,-0.48,0.70
5.752,-0.26,-0.36,-0.49,0.66
5.762,-0.22,-0.36,-0.46,0.62
5.772,-0.18,-0.41,-0.38,0.58
5.782,-0.15,-0.48,-0.20,0.54
5.792,-0.20,-0.58,0.02,0.61
5.802,-0.22,-0.67,0.20,0.74
5.812,-0.24,-0.71,0.34,0.82
5.822,-0.25,-0.68,0.39,0.83
5.833,-0.20,-0.60,0.33,0.71
5.843,-0.21,-0.47,0.15,0.54
5.853,-0.27,-0.40,0.04,0.49
5.863,-0.27,-0.31,-0.13,0.43
5.873,-0.19,-0.13,-0.35,0.42
5.883,-0.10,0.05,-0.50,0.51
5.893,-0.08,0.13,-0.55,0.57
5.903,-0.05,0.18,-0.56,0.58
5.913,-0.03,0.27,-0.50,0.57
5.923,-0.03,0.41,-0.44,0.60
5.933,-0.06,0.48,-0.42,0.64
5.943,-0.07,0.52,-0.43,0.68
5.953,-0.08,0.54,-0.51,0.75
5.963,-0.11,0.55,-0.62,0.83
5.973,-0.11,0.60,-0.70,0.93
5.984,-0.09,0.66,-0.75,1.00
5.994,-0.10,0.68,-0.75,1.02
6.004,-0.10,0.69,-0.71,0.99
6.014,-0.09,0.72,-0.59,0.93
6.024,-0.10,0.76,-0.47,0.89
6.034,-0.11,0.77,-0.34,0.85
6.044,-0.12,0.81,-0.26,0.86
6.054,-0.14,0.87,-0.17,0.89
6.064,-0.17,0.95,-0.13,0.98
6.074,-0.16,1.09,-0.14,1.11
6.084,-0.11,1.26,-0.14,1.27
6.094,-0.16,1.38,-0.10,1.39
6.104,-0.22,1.43,-0.03,1.44
6.115,-0.26,1.40,0.03,1.42
6.125,-0.29,1.30,0.07,1.33
6.135,-0.34,1.18,0.15,1.23
6.145,-0.33,1.10,0.26,1.18
6.155,-0.32,1.06,0.41,1.18
6.165,-0.33,0.99,0.60,1.20
6.175,-0.30,0.93,0.75,1.23
6.185,-0.23,0.95,0.81,1.27
6.195,-0.14,1.01,0.81,1.30
6.205,-0.01,1.13,0.79,1.38
6.215,0.02,1.20,0.90,1.49
6.225,-0.09,1.22,1.16,1.69
6.236,-0.14,1.32,1.65,2.12
6.245,-0.25,1.24,2.27,2.60
6.256,-0.39,0.87,2.84,3.00
6.266,-0.58,0.40,3.28,3.35
6.276,-0.89,-0.16,3.54,3.65
6.286,-1.14,-0.73,3.40,3.66
6.296,-1.28,-1.14,2.82,3.30
6.306,-1.20,-1.30,1.96,2.64
6.316,-1.10,-1.22,1.12,1.99
6.326,-1.01,-1.03,0.46,1.52
6.336,-0.90,-0.82,0.04,1.21
6.346,-0.81,-0.75,-0.17,1.12
6.356,-0.76,-0.88,-0.17,1.17
6.367,-0.86,-1.18,-0.17,1.47
6.376,-0.94,-1.49,-0.15,1.77
6.386,-1.01,-1.70,-0.22,1.99
6.397,-1.04,-1.83,-0.42,2.15
6.407,-1.11,-1.92,-0.72,2.34
6.417,-1.18,-1.90,-1.11,2.50
6.427,-1.17,-1.82,-1.53,2.65
6.437,-1.06,-1.76,-1.80,2.73
6.447,-0.95,-1.66,-1.84,2.66
6.457,-0.88,-1.54,-1.67,2.44
6.467,-0.85,-1.46,-1.31,2.14
6.477,-0.90,-1.41,-0.81,1.85
6.487,-1.00,-1.38,-0.23,1.72
6.497,-1.06,-1.37,0.23,1.75
6.507,-1.11,-1.37,0.57,1.85
6.518,-1.16,-1.31,0.84,1.94
6.527,-1.14,-1.19,1.05,1.95
6.538,-1.11,-1.11,1.21,1.98
6.548,-1.13,-1.11,1.33,2.07
6.558,-1.20,-1.22,1.44,2.24
6.568,-1.31,-1.39,1.51,2.43
6.578,-1.38,-1.54,1.50,2.56
6.588,-1.38,-1.64,1.38,2.55
6.598,-1.20,-1.59,1.06,2.25
6.608,-0.99,-1.42,0.73,1.88
6.618,-0.91,-1.27,0.53,1.65
6.628,-0.86,-1.15,0.41,1.49
6.639,-0.83,-1.05,0.35,1.38
6.649,-0.79,-0.97,0.34,1.30
6.658,-0.77,-0.91,0.33,1.23
6.669,-0.78,-0.91,0.32,1.24
6.679,-0.78,-0.90,0.33,1.24
6.689,-0.75,-0.85,0.24,1.16
6.699,-0.69,-0.84,0.13,1.09
6.709,-0.68,-0.85,0.09,1.09
6.719,-0.70,-0.85,0.13,1.11
6.729,-0.69,-0.87,0.19,1.12
6.739,-0.62,-0.86,0.27,1.10
6.749,-0.57,-0.88,0.34,1.10
6.759,-0.56,-0.93,0.40,1.15
6.769,-0.57,-0.97,0.43,1.20
6.779,-0.54,-0.97,0.39,1.18
6.789,-0.44,-0.90,0.33,1.06
6.800,-0.42,-0.85,0.31,1.00
6.810,-0.49,-0.82,0.36,1.02
6.820,-0.54,-0.79,0.40,1.03
6.830,-0.52,-0.70,0.41,0.96
6.840,-0.48,-0.62,0.37,0.87
6.850,-0.45,-0.59,0.31,0.81
6.860,-0.46,-0.61,0.30,0.82
6.870,-0.47,-0.63,0.30,0.84
6.880,-0.47,-0.67,0.26,0.86
6.890,-0.49,-0.66,0.21,0.86
6.901,-0.53,-0.65,0.18,0.86
6.910,-0.56,-0.62,0.19,0.86
6.921,-0.60,-0.64,0.24,0.90
6.931,-0.66,-0.69,0.33,1.02
6.941,-0.75,-0.79,0.45,1.18
6.951,-0.87,-0.96,0.64,1.44
6.961,-0.86,-1.11,0.83,1.63
6.971,-0.79,-1.20,1.07,1.79
6.981,-0.81,-1.24,1.28,1.96
6.991,-0.77,-1.25,1.42,2.04
7.001,-0.71,-1.23,1.42,2.01
7.011,-0.68,-1.20,1.34,1.92
7.021,-0.65,-1.27,1.24,1.89
7.031,-0.62,-1.40,1.07,1.87
7.041,-0.59,-1.55,1.00,1.94
7.051,-0.57,-1.77,1.04,2.12
7.061,-0.67,-2.05,1.10,2.41
7.071,-0.66,-2.28,1.12,2.62
7.082,-0.57,-2.42,1.14,2.73
7.092,-0.49,-2.49,1.18,2.79
7.102,-0.39,-2.51,1.21,2.81
7.112,-0.29,-2.51,1.19,2.79
7.122,-0.19,-2.49,1.05,2.71
7.132,-0.10,-2.40,0.85,2.54
7.142,0.02,-2.29,0.62,2.37
7.152,0.16,-2.17,0.41,2.21
7.162,0.27,-2.07,0.22,2.10
7.172,0.36,-1.99,0.16,2.03
7.182,0.41,-1.87,0.19,1.92
7.192,0.46,-1.74,0.23,1.82
7.203,0.53,-1.63,0.24,1.73
7.213,0.56,-1.53,0.26,1.65
7.223,0.57,-1.39,0.38,1.55
7.233,0.58,-1.27,0.57,1.51
7.243,0.57,-1.20,0.73,1.52
7.253,0.57,-1.16,0.82,1.53
7.263,0.56,-1.15,0.89,1.56
7.273,0.50,-1.14,1.01,1.60
7.283,0.49,-1.18,1.06,1.66
7.293,0.49,-1.21,1.06,1.68
7.303,0.53,-1.22,0.98,1.65
7.313,0.55,-1.26,0.81,1.60
7.323,0.58,-1.32,0.56,1.54
7.333,0.64,-1.30,0.29,1.48
7.343,0.71,-1.24,0.04,1.43
7.354,0.79,-1.16,-0.17,1.41
7.364,0.84,-1.08,-0.27,1.40
7.374,0.89,-1.02,-0.31,1.39
7.384,0.88,-0.94,-0.28,1.32
7.394,0.86,-0.86,-0.23,1.24
7.404,0.87,-0.74,-0.18,1.16
7.414,0.82,-0.67,-0.06,1.06
7.424,0.70,-0.67,0.13,0.98
7.434,0.59,-0.67,0.30,0.94
7.444,0.47,-0.67,0.46,0.94
7.454,0.36,-0.68,0.64,1.00
7.464,0.27,-0.71,0.73,1.05
7.474,0.27,-0.69,0.65,0.99
7.484,0.36,-0.60,0.42,0.82
7.495,0.42,-0.46,0.16,0.64
7.505,0.49,-0.35,-0.12,0.61
7.515,0.59,-0.25,-0.35,0.73
7.525,0.66,-0.18,-0.49,0.84
7.535,0.73,-0.13,-0.50,0.90
7.545,0.75,-0.09,-0.44,0.88
7.555,0.74,-0.04,-0.30,0.80
7.565,0.71,0.01,-0.14,0.73
7.575,0.73,0.12,-0.08,0.75
7.585,0.79,0.25,-0.05,0.83
7.595,0.83,0.40,-0.02,0.92
7.605,0.85,0.52,-0.01,1.00
7.615,0.87,0.56,0.04,1.04
7.626,0.85,0.52,0.07,1.00
7.636,0.84,0.47,0.08,0.96
7.646,0.84,0.46,0.11,0.97
7.656,0.82,0.51,0.16,0.98
7.666,0.82,0.59,0.20,1.03
7.676,0.81,0.66,0.22,1.07
7.686,0.79,0.70,0.21,1.08
7.696,0.74,0.69,0.16,1.03
7.706,0.63,0.64,0.09,0.91
7.716,0.55,0.58,0.02,0.79
7.726,0.49,0.52,-0.14,0.73
7.736,0.47,0.51,-0.30,0.76
7.746,0.47,0.58,-0.47,0.88
7.756,0.44,0.68,-0.60,1.01
7.767,0.44,0.80,-0.66,1.13
7.777,0.45,0.91,-0.69,1.22
7.787,0.42,1.01,-0.64,1.27
7.797,0.42,1.10,-0.56,1.30
7.807,0.43,1.19,-0.48,1.35
7.817,0.46,1.26,-0.38,1.39
7.827,0.46,1.27,-0.24,1.38
7.837,0.46,1.28,-0.10,1.36
7.847,0.44,1.24,-0.06,1.32
7.857,0.42,1.17,-0.08,1.25
7.867,0.42,1.14,-0.18,1.23
7.877,0.43,1.14,-0.29,1.25
7.887,0.44,1.15,-0.38,1.29
7.898,0.37,1.20,-0.39,1.32
7.908,0.32,1.27,-0.35,1.35
7.918,0.29,1.31,-0.30,1.37
7.928,0.24,1.35,-0.19,1.38
7.938,0.11,1.34,-0.08,1.35
7.948,0.05,1.29,-0.07,1.30
7.958,0.05,1.27,-0.18,1.28
7.968,0.06,1.29,-0.30,1.33
7.978,0.02,1.32,-0.41,1.39
7.988,-0.01,1.31,-0.55,1.43
7.998,0.03,1.29,-0.72,1.48
8.008,0.03,1.23,-0.80,1.47
8.018,-0.05,1.11,-0.81,1.37
8.029,-0.11,0.98,-0.76,1.25
8.039,-0.26,0.95,-0.65,1.18
8.049,-0.44,1.04,-0.49,1.23
8.059,-0.58,1.16,-0.35,1.35
8.069,-0.66,1.34,-0.21,1.50
8.079,-0.64,1.51,-0.13,1.65
8.089,-0.62,1.54,-0.05,1.66
8.099,-0.66,1.41,-0.01,1.56
8.109,-0.73,1.21,0.08,1.42
8.119,-0.77,1.07,0.13,1.33
8.129,-0.74,0.99,0.14,1.25
8.139,-0.67,0.88,0.11,1.11
8.149,-0.63,0.79,0.06,1.01
8.160,-0.56,0.71,0.00,0.91
8.169,-0.47,0.69,-0.10,0.84
8.179,-0.36,0.72,-0.23,0.84
8.190,-0.22,0.82,-0.38,0.93
8.200,-0.03,0.98,-0.56,1.13
8.210,0.17,1.12,-0.70,1.33
8.220,0.30,1.17,-0.71,1.40
8.230,0.37,1.14,-0.60,1.33
8.240,0.38,1.05,-0.32,1.16
8.250,0.36,0.94,0.03,1.01
8.260,0.28,0.77,0.41,0.91
8.270,0.11,0.49,0.79,0.93
8.280,-0.06,0.20,1.06,1.08
8.290,-0.13,0.02,1.15,1.16
8.300,-0.11,-0.06,1.04,1.05
8.311,-0.01,-0.05,0.79,0.79
8.321,0.11,0.02,0.52,0.53
8.331,0.18,0.08,0.37,0.42
8.341,0.19,0.08,0.35,0.41
8.351,0.19,-0.01,0.40,0.44
8.361,0.18,-0.14,0.50,0.56
8.371,0.13,-0.26,0.62,0.68
8.381,0.06,-0.34,0.71,0.79
8.391,0.00,-0.34,0.66,0.75
8.401,-0.01,-0.30,0.47,0.56
8.411,-0.01,-0.23,0.21,0.32
8.421,0.01,-0.16,-0.06,0.17
8.431,0.03,-0.15,-0.28,0.32
8.441,0.03,-0.16,-0.45,0.48
8.452,0.04,-0.18,-0.53,0.56
8.462,0.06,-0.26,-0.53,0.60
8.472,0.08,-0.38,-0.44,0.59
8.482,0.04,-0.50,-0.21,0.55
8.492,-0.00,-0.67,0.09,0.67
8.502,0.01,-0.85,0.36,0.92
8.512,0.07,-1.01,0.53,1.15
8.522,0.13,-1.09,0.54,1.22
8.532,0.17,-1.14,0.44,1.23
8.542,0.17,-1.15,0.23,1.19
8.553,0.18,-1.10,-0.04,1.11
8.562,0.22,-0.96,-0.31,1.03
8.573,0.30,-0.75,-0.51,0.96
8.583,0.42,-0.53,-0.59,0.89
8.593,0.50,-0.35,-0.59,0.85
8.603,0.55,-0.22,-0.51,0.78
8.613,0.53,-0.16,-0.39,0.68
8.623,0.49,-0.15,-0.24,0.57
8.633,0.45,-0.14,-0.08,0.48
8.643,0.36,-0.08,0.10,0.38
8.653,0.30,-0.02,0.25,0.39
8.663,0.22,-0.03,0.32,0.40
8.673,0.15,-0.07,0.33,0.37
8.683,0.07,-0.13,0.31,0.35
8.693,-0.01,-0.22,0.26,0.34
8.703,-0.08,-0.35,0.21,0.42
8.714,-0.20,-0.50,0.17,0.56
8.724,-0.25,-0.58,0.03,0.63
8.734,-0.17,-0.52,-0.19,0.58
8.744,-0.11,-0.31,-0.36,0.49
8.754,-0.11,-0.10,-0.43,0.46
8.764,-0.09,0.06,-0.50,0.51
8.774,-0.02,0.19,-0.59,0.62
8.784,0.07,0.30,-0.69,0.75
8.794,0.10,0.37,-0.78,0.87
8.804,0.08,0.36,-0.89,0.97
8.814,0.05,0.34,-0.99,1.05
8.824,0.08,0.35,-1.15,1.20
8.835,0.13,0.42,-1.28,1.35
8.844,0.18,0.54,-1.32,1.44
8.854,0.19,0.64,-1.22,1.39
8.865,0.17,0.72,-1.02,1.26
8.875,0.20,0.76,-0.83,1.14
8.885,0.19,0.74,-0.66,1.01
8.895,0.20,0.74,-0.50,0.91
8.905,0.21,0.72,-0.40,0.85
8.915,0.26,0.72,-0.37,0.85
8.925,0.28,0.76,-0.40,0.90
8.935,0.32,0.82,-0.43,0.98
8.945,0.35,0.90,-0.49,1.09
8.955,0.36,0.98,-0.58,1.19
8.965,0.41,1.05,-0.68,1.32
8.975,0.46,1.13,-0.74,1.43
8.985,0.47,1.16,-0.77,1.47
8.995,0.49,1.13,-0.78,1.46
9.006,0.57,1.10,-0.77,1.46
9.016,0.61,1.07,-0.71,1.42
9.026,0.55,0.97,-0.51,1.22
9.036,0.48,0.84,-0.23,1.00
9.046,0.44,0.71,0.02,0.84
9.056,0.41,0.62,0.20,0.77
9.066,0.40,0.61,0.34,0.81
9.076,0.47,0.70,0.42,0.94
9.086,0.56,0.85,0.47,1.12
9.096,0.62,0.91,0.47,1.19
9.106,0.66,0.89,0.44,1.19
9.116,0.59,0.88,0.54,1.19
9.126,0.33,0.88,0.81,1.24
9.137,0.06,0.92,1.12,1.45
9.147,-0.11,0.93,1.32,1.62
9.157,-0.20,0.90,1.38,1.65
9.167,-0.34,0.76,1.40,1.63
9.177,-0.51,0.58,1.33,1.54
9.187,-0.64,0.36,1.17,1.38
9.197,-0.70,0.17,0.85,1.11
9.207,-0.63,0.05,0.42,0.76
9.217,-0.51,-0.03,-0.06,0.52
9.227,-0.43,-0.14,-0.38,0.59
9.238,-0.33,-0.22,-0.56,0.69
9.247,-0.20,-0.27,-0.59,0.68
9.258,-0.18,-0.37,-0.50,0.65
9.267,-0.24,-0.53,-0.34,0.68
9.277,-0.32,-0.68,-0.17,0.77
9.288,-0.37,-0.76,-0.04,0.85
9.298,-0.38,-0.82,-0.01,0.90
9.308,-0.39,-0.87,-0.05,0.95
9.318,-0.40,-0.92,-0.08,1.01
9.328,-0.39,-0.90,-0.15,0.99
9.338,-0.34,-0.84,-0.26,0.94
9.348,-0.19,-0.72,-0.36,0.82
9.358,-0.10,-0.58,-0.43,0.72
9.368,-0.05,-0.48,-0.47,0.68
9.378,-0.01,-0.45,-0.44,0.63
9.388,-0.04,-0.45,-0.36,0.58
9.399,-0.12,-0.46,-0.22,0.52
9.408,-0.22,-0.42,-0.04,0.47
9.418,-0.26,-0.35,0.08,0.45
9.429,-0.23,-0.31,0.12,0.40
9.439,-0.20,-0.35,0.13,0.42
9.449,-0.20,-0.41,0.08,0.47
9.459,-0.19,-0.47,-0.04,0.51
9.469,-0.11,-0.49,-0.23,0.56
9.479,-0.08,-0.48,-0.45,0.66
9.489,-0.03,-0.42,-0.63,0.76
9.499,0.04,-0.33,-0.75,0.82
9.509,0.07,-0.14,-0.71,0.72
9.519,0.05,0.02,-0.53,0.53
9.529,-0.00,0.10,-0.38,0.39
9.539,-0.06,0.17,-0.27,0.33
9.550,-0.11,0.28,-0.24,0.39
9.560,-0.15,0.37,-0.26,0.48
9.570,-0.11,0.45,-0.39,0.60
9.580,-0.07,0.52,-0.49,0.72
9.590,-0.06,0.58,-0.56,0.81
9.600,-0.04,0.61,-0.62,0.87
9.610,-0.02,0.62,-0.66,0.90
9.620,0.00,0.63,-0.63,0.89
9.630,0.02,0.67,-0.58,0.88
9.640,0.04,0.68,-0.58,0.89
9.650,0.02,0.70,-0.60,0.93
9.660,0.02,0.73,-0.65,0.98
9.670,0.02,0.77,-0.72,1.06
9.681,0.05,0.79,-0.78,1.11
9.691,0.06,0.80,-0.78,1.12
9.701,0.03,0.81,-0.72,1.08
9.711,0.00,0.84,-0.63,1.05
9.721,0.04,0.92,-0.59,1.09
9.731,0.04,1.03,-0.53,1.16
9.741,0.01,1.11,-0.44,1.19
9.751,-0.01,1.16,-0.32,1.20
9.761,-0.05,1.19,-0.21,1.21
9.771,-0.03,1.24,-0.11,1.25
9.781,0.05,1.25,-0.08,1.25
9.791,0.05,1.16,0.01,1.16
9.802,-0.00,1.04,0.26,1.08
9.812,0.02,1.02,0.48,1.12
9.822,-0.02,0.97,0.73,1.21
9.832,0.01,0.92,0.86,1.26
9.842,0.07,0.91,0.89,1.27
9.852,0.09,0.96,0.91,1.33
9.862,0.07,1.11,1.07,1.54
9.872,0.05,1.24,1.31,1.80
9.882,0.01,1.25,1.54,1.99
9.892,0.03,1.04,1.74,2.03
9.902,0.03,0.67,1.88,1.99
9.912,-0.01,0.15,1.93,1.94
9.922,-0.02,-0.39,1.83,1.87
9.932,-0.03,-0.83,1.58,1.78
9.943,0.02,-1.04,1.18,1.57
9.952,0.08,-1.02,0.77,1.28
9.963,0.16,-0.90,0.44,1.02
9.973,0.15,-0.75,0.30,0.82
9.983,0.07,-0.66,0.36,0.76
9.993,0.01,-0.68,0.57,0.89
10.003,-0.07,-0.75,0.76,1.07
10.013,-0.10,-0.83,0.78,1.14
10.023,-0.23,-1.05,0.72,1.29
10.033,-0.41,-1.32,0.59,1.50
10.043,-0.44,-1.55,0.42,1.66
10.053,-0.35,-1.73,0.15,1.78
10.063,-0.22,-1.87,-0.14,1.89
10.074,-0.04,-1.89,-0.45,1.95
10.083,0.11,-1.82,-0.74,1.97
10.093,0.27,-1.63,-0.97,1.92
10.104,0.37,-1.41,-1.06,1.80
10.114,0.46,-1.20,-0.99,1.62
10.124,0.52,-0.99,-0.73,1.34
10.134,0.47,-0.90,-0.36,1.08
10.144,0.41,-0.91,0.03,0.99
10.154,0.32,-0.92,0.33,1.03
10.164,0.22,-0.93,0.53,1.09
10.174,0.18,-0.92,0.66,1.15
10.184,0.18,-0.83,0.71,1.10
10.194,0.13,-0.72,0.76,1.06
10.205,0.05,-0.69,0.77,1.04
10.214,0.05,-0.65,0.66,0.93
10.224,-0.02,-0.64,0.60,0.88
10.235,-0.12,-0.67,0.52,0.86
10.245,0.02,-0.65,0.33,0.73
10.255,0.06,-0.68,0.10,0.69
10.265,0.13,-0.70,-0.09,0.72
10.275,0.19,-0.63,-0.17,0.68
10.285,0.21,-0.45,-0.24,0.55
10.295,0.11,-0.35,-0.17,0.40
10.305,0.14,-0.25,-0.20,0.35
10.315,0.24,-0.10,-0.30,0.39
10.325,0.26,-0.06,-0.31,0.41
10.335,0.23,-0.06,-0.27,0.36
10.345,0.16,-0.06,-0.22,0.28
10.355,0.04,-0.02,-0.19,0.20
10.366,-0.05,0.04,-0.23,0.24
10.376,-0.02,0.17,-0.30,0.35
10.386,0.11,0.30,-0.39,0.50
10.396,0.17,0.32,-0.42,0.55
10.406,0.20,0.17,-0.36,0.45
10.416,0.21,0.05,-0.30,0.37
10.426,0.14,-0.02,-0.23,0.27
10.436,0.07,0.09,-0.20,0.23
10.446,0.13,0.38,-0.15,0.43
10.456,0.20,0.58,-0.21,0.65
10.467,0.25,0.67,-0.30,0.78
10.476,0.32,0.68,-0.34,0.83
10.486,0.29,0.64,-0.33,0.78
10.497,0.22,0.59,-0.32,0.71
10.506,0.29,0.63,-0.32,0.76
10.517,0.28,0.63,-0.33,0.76
10.527,0.28,0.52,-0.35,0.69
10.537,0.33,0.51,-0.26,0.66
10.547,0.36,0.56,-0.21,0.69
10.557,0.35,0.62,-0.16,0.73
10.567,0.35,0.67,-0.05,0.75
10.577,0.36,0.71,0.08,0.80
10.587,0.35,0.71,0.14,0.80
10.597,0.28,0.68,0.21,0.77
10.607,0.21,0.67,0.27,0.75
10.617,0.13,0.58,0.27,0.65
10.627,0.07,0.48,0.23,0.54
10.637,0.05,0.46,0.06,0.47
10.648,0.13,0.50,-0.06,0.52
10.658,0.27,0.60,0.00,0.66
10.668,0.22,0.54,0.17,0.61
10.678,0.07,0.18,0.39,0.43
10.688,-0.08,-0.24,0.53,0.59
10.698,-0.19,-0.45,0.60,0.77
10.708,-0.11,-0.39,0.70,0.81
10.718,-0.02,-0.23,0.61,0.65
10.728,0.07,-0.15,0.31,0.35
10.738,0.23,-0.02,0.06,0.23
10.748,0.28,0.09,-0.13,0.32
10.758,0.26,0.14,-0.24,0.38
10.768,0.24,0.11,-0.29,0.39
10.779,0.26,0.08,-0.24,0.36
10.789,0.28,0.01,-0.24,0.37
10.799,0.30,-0.14,-0.39,0.51
10.809,0.20,-0.32,-0.49,0.62
10.819,0.02,-0.46,-0.58,0.74
10.829,-0.23,-0.53,-0.64,0.86
10.839,-0.36,-0.45,-0.62,0.85
10.849,-0.35,-0.33,-0.33,0.58
10.859,-0.32,-0.32,-0.28,0.53
10.871,0.04,-0.19,-0.94,0.96
10.879,0.05,-0.26,-0.55,0.61
10.889,-0.31,-0.55,-0.27,0.69
10.899,-0.32,-0.73,-0.14,0.81
10.909,-0.32,-0.99,0.02,1.04
10.920,-0.36,-1.18,0.27,1.26
10.930,-0.40,-1.35,0.49,1.49
10.940,-0.34,-1.28,0.53,1.43
10.950,-0.25,-1.13,0.51,1.27
10.960,-0.24,-1.19,0.51,1.32
10.970,-0.25,-1.31,0.58,1.46
10.980,-0.26,-1.41,0.59,1.55
10.990,-0.26,-1.47,0.39,1.54
11.000,-0.06,-1.25,0.14,1.26
11.010,0.24,-1.03,0.05,1.06
11.020,-0.08,-1.10,0.20,1.12
11.030,-0.44,-1.20,0.56,1.39
