time,ax,ay,az,atotal
0.000,0.01,-0.00,-0.01,0.01
0.010,0.01,-0.00,-0.01,0.01
0.020,-0.00,-0.00,-0.02,0.02
0.030,0.01,-0.01,0.01,0.01
0.040,-0.01,-0.01,0.01,0.01
0.050,-0.00,0.00,-0.01,0.01
0.060,0.02,-0.02,-0.08,0.09
0.070,-0.01,0.00,-0.01,0.01
0.081,-0.00,-0.01,-0.01,0.01
0.090,0.00,-0.01,-0.03,0.03
0.101,-0.01,-0.01,-0.02,0.02
0.111,0.00,-0.01,-0.01,0.02
0.121,-0.00,-0.01,-0.02,0.02
0.131,0.00,-0.00,-0.01,0.01
0.141,0.00,-0.00,-0.03,0.03
0.151,0.01,0.00,-0.01,0.01
0.161,-0.01,-0.00,-0.01,0.01
0.171,-0.01,-0.01,-0.00,0.01
0.181,-0.00,-0.00,0.01,0.01
0.191,0.01,-0.00,-0.02,0.02
0.202,0.00,-0.01,-0.05,0.05
0.212,0.01,-0.00,-0.08,0.08
0.222,0.01,-0.01,-0.06,0.06
0.232,0.00,-0.01,0.02,0.02
0.242,-0.01,0.00,-0.01,0.01
0.252,0.00,-0.01,-0.02,0.02
0.262,0.01,-0.01,-0.04,0.04
0.272,-0.01,-0.01,-0.01,0.01
0.282,0.00,-0.00,0.04,0.04
0.292,0.01,0.00,-0.02,0.02
0.302,0.00,-0.02,-0.05,0.05
0.316,-0.00,-0.00,-0.03,0.03
0.326,0.00,0.00,-0.05,0.05
0.336,-0.01,-0.00,0.02,0.03
0.346,-0.00,-0.00,-0.01,0.01
0.356,0.01,-0.01,-0.05,0.05
0.366,0.00,-0.01,-0.03,0.03
0.377,-0.00,0.00,-0.01,0.01
0.387,0.00,-0.00,-0.01,0.01
0.397,0.00,-0.02,-0.01,0.02
0.407,0.00,-0.01,-0.02,0.02
0.417,0.01,-0.00,-0.01,0.02
0.427,0.01,-0.00,-0.00,0.01
0.437,-0.00,-0.00,-0.03,0.03
0.447,-0.00,-0.01,-0.01,0.01
0.457,0.01,-0.00,-0.02,0.02
0.467,0.01,-0.01,-0.05,0.05
0.477,0.00,-0.01,-0.01,0.02
0.487,-0.00,-0.01,-0.00,0.01
0.497,0.01,-0.00,-0.01,0.02
0.507,0.01,-0.00,-0.05,0.05
0.518,0.01,-0.01,-0.01,0.01
0.528,-0.00,-0.00,0.04,0.04
0.538,-0.01,0.01,0.00,0.01
0.548,0.01,-0.00,-0.01,0.02
0.558,0.02,-0.01,-0.06,0.07
0.568,-0.00,0.00,0.03,0.03
0.578,-0.01,0.00,0.06,0.06
0.588,0.01,-0.01,-0.06,0.06
0.598,0.02,-0.02,-0.08,0.09
0.608,0.01,-0.02,-0.02,0.03
0.618,0.00,-0.01,0.03,0.03
0.628,0.02,-0.01,-0.01,0.02
0.638,0.00,-0.01,-0.01,0.02
0.648,-0.01,-0.00,0.03,0.03
0.659,-0.01,-0.01,0.01,0.01
0.669,0.01,-0.01,-0.00,0.01
0.679,0.01,-0.00,0.01,0.02
0.689,0.01,-0.01,0.00,0.02
0.699,0.00,-0.01,-0.00,0.01
0.709,0.01,-0.01,-0.04,0.05
0.719,0.01,-0.01,-0.03,0.03
0.729,-0.00,-0.01,0.04,0.04
0.739,-0.00,-0.01,0.02,0.02
0.749,0.00,-0.01,0.01,0.01
0.759,0.01,-0.01,-0.03,0.04
0.769,0.01,-0.01,-0.05,0.05
0.779,-0.00,-0.00,0.03,0.03
0.789,-0.01,-0.01,0.04,0.04
0.799,0.01,-0.01,-0.01,0.02
0.810,0.01,-0.01,-0.02,0.03
0.820,0.02,-0.02,-0.04,0.04
0.830,0.02,-0.01,-0.05,0.05
0.840,0.01,-0.01,0.04,0.04
0.850,-0.00,-0.00,0.07,0.07
0.860,0.00,-0.01,-0.00,0.01
0.870,0.01,-0.01,-0.02,0.03
0.880,0.01,-0.01,0.03,0.03
0.890,0.00,-0.01,0.01,0.01
0.901,0.01,-0.01,0.01,0.02
0.910,0.01,-0.01,-0.02,0.03
0.921,0.01,-0.01,-0.01,0.02
0.931,-0.00,0.00,0.06,0.06
0.941,0.01,-0.01,0.01,0.01
0.951,0.01,-0.00,-0.02,0.02
0.961,0.01,-0.01,0.01,0.02
0.971,-0.01,-0.00,0.02,0.02
0.981,0.01,-0.00,0.01,0.02
0.991,0.01,-0.01,0.00,0.01
1.001,0.01,-0.01,-0.01,0.02
1.011,0.01,-0.00,-0.01,0.02
1.021,0.00,-0.01,0.00,0.01
1.031,0.00,-0.00,0.04,0.04
1.041,0.01,-0.00,0.03,0.03
1.052,0.01,-0.00,-0.00,0.01
1.062,0.01,-0.00,-0.00,0.01
1.072,0.01,-0.00,0.05,0.05
1.082,0.00,-0.00,0.06,0.06
1.092,0.01,-0.01,0.01,0.02
1.102,0.01,-0.01,-0.00,0.02
1.112,0.00,-0.00,0.02,0.02
1.122,-0.01,-0.01,0.03,0.03
1.132,0.01,-0.00,0.02,0.02
1.142,0.01,0.00,-0.00,0.01
1.152,0.01,-0.01,-0.00,0.02
1.162,0.01,-0.01,0.01,0.02
1.172,0.01,-0.02,0.02,0.03
1.182,0.01,-0.00,0.01,0.01
1.192,0.01,-0.01,0.03,0.03
1.203,0.01,-0.01,0.01,0.02
1.213,0.00,-0.00,0.02,0.02
1.223,0.02,-0.01,0.02,0.03
1.233,0.00,-0.00,0.03,0.03
1.243,-0.00,-0.01,0.05,0.05
1.253,0.01,-0.01,0.02,0.02
1.263,0.01,-0.01,0.01,0.02
1.273,0.00,-0.01,0.01,0.01
1.283,0.01,-0.01,-0.00,0.01
1.293,0.01,-0.01,0.03,0.03
1.303,-0.00,0.00,0.05,0.05
1.314,0.01,0.00,0.03,0.03
1.323,0.01,-0.01,0.02,0.03
1.334,0.00,-0.01,0.03,0.03
1.344,0.01,-0.00,0.02,0.02
1.354,0.01,-0.00,0.02,0.03
1.364,0.01,-0.00,0.02,0.02
1.374,0.01,-0.00,0.01,0.01
1.384,0.00,-0.01,0.01,0.01
1.394,0.01,-0.01,0.04,0.04
1.404,0.01,-0.00,0.04,0.04
1.414,0.00,-0.01,0.02,0.02
1.424,0.00,-0.01,0.02,0.02
1.434,0.00,-0.00,0.03,0.03
1.444,0.00,-0.01,0.03,0.03
1.454,0.01,-0.01,0.01,0.02
1.465,0.01,-0.01,0.02,0.02
1.475,0.01,-0.02,0.00,0.02
1.485,0.02,-0.01,0.01,0.02
1.495,0.01,-0.00,0.05,0.05
1.505,0.00,-0.01,0.04,0.04
1.515,-0.00,-0.01,0.01,0.02
1.525,0.00,-0.01,0.04,0.04
1.535,0.01,-0.01,0.03,0.03
1.545,0.01,-0.01,0.03,0.03
1.555,0.01,-0.01,-0.00,0.01
1.565,0.01,-0.01,0.02,0.02
1.575,0.01,-0.00,0.02,0.03
1.585,0.01,-0.00,0.01,0.01
1.596,0.01,-0.01,0.02,0.03
1.606,0.01,-0.00,0.02,0.02
1.616,0.00,0.00,0.04,0.04
1.626,-0.00,-0.00,0.06,0.06
1.636,0.01,-0.01,0.00,0.01
1.646,0.01,-0.01,0.01,0.02
1.656,0.02,-0.01,0.02,0.03
1.666,0.01,-0.01,0.02,0.03
1.676,0.01,-0.01,0.03,0.03
1.686,0.01,0.00,0.02,0.02
1.696,0.01,-0.00,0.02,0.02
1.706,0.01,-0.01,0.03,0.03
1.716,0.02,-0.01,0.02,0.03
1.726,0.01,0.00,0.05,0.05
1.736,0.00,-0.00,0.02,0.02
1.747,0.01,-0.01,0.01,0.01
1.757,0.01,-0.01,0.02,0.02
1.767,0.01,-0.00,0.04,0.05
1.777,0.00,-0.00,0.02,0.02
1.787,0.01,-0.01,0.01,0.01
1.797,0.01,-0.00,0.01,0.02
1.807,0.01,-0.00,0.02,0.02
1.817,-0.00,-0.01,0.03,0.03
1.827,0.00,-0.00,0.06,0.06
1.837,0.01,-0.01,0.03,0.03
1.847,0.01,-0.01,0.03,0.03
1.857,0.00,-0.01,0.03,0.03
1.867,0.00,-0.00,0.02,0.02
1.878,0.01,-0.01,0.01,0.02
1.888,0.01,-0.01,0.00,0.01
1.898,0.01,-0.01,0.01,0.02
1.908,0.02,0.00,0.01,0.02
1.918,0.00,-0.01,0.02,0.02
1.928,0.00,-0.00,0.02,0.02
1.938,0.01,-0.01,0.02,0.02
1.948,0.01,-0.01,0.05,0.05
1.958,0.01,-0.01,0.03,0.03
1.968,0.01,-0.01,0.01,0.01
1.978,0.01,-0.01,0.02,0.02
1.988,-0.00,-0.01,0.02,0.02
1.999,0.01,-0.00,0.01,0.01
2.009,0.01,-0.01,0.03,0.03
2.019,-0.00,-0.01,0.04,0.04
2.029,0.01,-0.01,0.01,0.01
2.039,0.01,-0.01,0.01,0.02
2.049,0.01,-0.01,0.03,0.03
2.059,0.00,-0.00,0.03,0.03
2.069,0.01,-0.01,0.01,0.02
2.079,0.01,-0.01,0.01,0.02
2.089,0.01,-0.01,0.00,0.01
2.099,0.00,-0.00,0.03,0.03
2.109,0.01,-0.00,0.02,0.03
2.119,0.01,-0.01,0.01,0.02
2.129,0.01,-0.01,0.02,0.02
2.139,-0.00,-0.01,0.03,0.03
2.150,0.01,-0.01,0.01,0.02
2.160,0.01,-0.01,0.02,0.02
2.170,-0.00,-0.01,0.05,0.05
2.180,0.01,-0.01,0.02,0.02
2.190,0.01,-0.01,0.00,0.01
2.200,0.01,-0.01,0.02,0.02
2.210,0.01,-0.01,0.01,0.02
2.220,0.01,-0.01,0.02,0.02
2.230,0.01,-0.00,0.01,0.02
2.240,0.00,-0.01,0.04,0.04
2.250,-0.00,-0.01,0.02,0.02
2.260,0.01,-0.01,0.01,0.02
2.270,0.01,-0.00,0.01,0.01
2.280,0.00,-0.00,0.04,0.04
2.291,0.01,-0.01,0.01,0.01
2.301,0.01,-0.02,-0.01,0.02
2.311,0.01,-0.01,-0.00,0.02
2.321,0.01,-0.01,-0.00,0.02
2.331,0.00,-0.01,0.04,0.04
2.341,-0.00,-0.01,0.07,0.07
2.351,0.01,-0.01,0.01,0.02
2.361,0.01,-0.01,0.00,0.01
2.371,0.01,-0.00,0.02,0.02
2.381,0.00,-0.00,0.01,0.01
2.391,0.01,-0.01,0.00,0.01
2.401,0.01,-0.01,0.03,0.03
2.412,0.01,-0.00,0.02,0.02
2.421,0.02,-0.01,0.00,0.02
2.432,0.01,-0.01,0.03,0.03
2.442,0.01,-0.00,0.02,0.02
2.452,0.01,-0.01,-0.00,0.02
2.462,0.01,-0.01,0.01,0.01
2.472,0.01,-0.01,0.02,0.03
2.482,0.01,-0.01,0.02,0.02
2.492,0.00,-0.00,0.02,0.03
2.502,0.02,-0.01,0.00,0.02
2.512,0.01,-0.01,-0.00,0.02
2.522,0.01,-0.01,0.02,0.02
2.532,0.00,-0.01,0.03,0.03
2.542,-0.00,-0.01,0.02,0.02
2.552,0.01,-0.01,0.01,0.02
2.563,0.01,-0.02,0.01,0.02
2.573,0.00,-0.00,0.03,0.03
2.583,0.01,-0.00,0.02,0.03
2.593,0.01,-0.01,-0.01,0.02
2.603,0.01,-0.00,-0.01,0.02
2.613,-0.00,-0.01,0.01,0.02
2.623,0.01,-0.01,0.03,0.03
2.633,0.01,-0.00,0.02,0.02
2.643,0.01,-0.01,0.00,0.01
2.653,0.01,-0.01,0.01,0.02
2.663,0.00,-0.01,0.06,0.06
2.674,0.00,0.00,0.02,0.02
2.684,0.01,0.00,-0.01,0.02
2.693,0.00,-0.02,0.00,0.02
2.704,-0.00,-0.00,0.03,0.03
2.714,0.00,-0.00,0.03,0.03
2.724,0.01,-0.01,0.01,0.02
2.734,0.01,-0.00,0.01,0.01
2.744,0.01,-0.01,0.02,0.03
2.754,0.01,-0.01,0.02,0.02
2.764,0.01,-0.01,0.02,0.02
2.774,0.00,-0.01,0.02,0.03
2.784,0.01,-0.01,0.02,0.03
2.794,0.00,-0.00,-0.00,0.01
2.804,0.01,-0.01,0.01,0.02
2.814,0.01,-0.01,0.02,0.03
2.824,0.01,-0.01,0.02,0.03
2.834,0.01,-0.02,0.01,0.02
2.845,0.01,-0.01,0.01,0.02
2.855,0.02,-0.02,0.01,0.03
2.865,0.00,-0.01,0.04,0.04
2.875,0.01,-0.01,0.02,0.02
2.885,0.01,-0.00,0.01,0.01
2.895,0.00,-0.02,0.02,0.02
2.905,0.00,-0.01,0.02,0.02
2.915,0.00,-0.01,0.03,0.04
2.925,0.00,-0.01,0.03,0.03
2.935,0.01,-0.01,0.01,0.01
2.945,0.01,-0.02,-0.00,0.02
2.956,0.01,-0.01,0.01,0.02
2.966,-0.00,-0.01,0.02,0.02
2.976,0.00,-0.01,0.00,0.01
2.986,0.01,-0.01,0.02,0.03
2.996,0.01,-0.00,0.06,0.06
3.006,-0.00,-0.01,0.02,0.03
3.016,0.01,-0.01,-0.01,0.02
3.026,0.00,-0.01,0.02,0.02
3.036,0.00,-0.00,0.02,0.02
3.046,0.02,-0.01,-0.01,0.02
3.056,0.02,-0.01,-0.01,0.02
3.066,0.01,-0.01,0.01,0.02
3.076,0.00,-0.01,0.02,0.02
3.086,0.00,-0.01,0.01,0.02
3.097,0.01,-0.01,0.02,0.02
3.106,0.01,-0.01,0.03,0.03
3.117,0.01,-0.00,0.03,0.03
3.127,0.00,-0.01,0.02,0.02
3.137,-0.00,0.00,0.03,0.04
3.147,0.01,-0.01,0.00,0.02
3.157,0.01,-0.01,-0.01,0.02
3.167,0.00,0.00,0.02,0.02
3.177,0.00,-0.00,0.04,0.04
3.187,-0.00,-0.01,0.03,0.03
3.197,0.01,-0.01,0.01,0.02
3.207,0.01,-0.01,-0.02,0.02
3.217,0.01,-0.00,-0.01,0.01
3.228,0.00,-0.00,0.02,0.02
3.237,-0.00,-0.01,0.03,0.03
3.248,0.01,-0.02,0.02,0.03
3.258,0.01,-0.01,0.00,0.01
3.268,0.01,-0.01,0.01,0.02
3.278,0.00,-0.01,0.02,0.03
3.288,0.00,-0.01,0.01,0.01
3.298,0.01,0.00,-0.01,0.02
3.308,0.02,-0.00,0.02,0.02
3.318,0.00,-0.01,0.04,0.04
3.328,0.00,-0.01,0.01,0.01
3.338,0.01,-0.00,0.03,0.03
3.348,0.01,-0.01,0.03,0.03
3.358,-0.00,-0.00,0.02,0.02
3.368,0.02,-0.01,0.00,0.02
3.379,0.02,-0.01,-0.01,0.02
3.389,0.01,-0.01,-0.01,0.02
3.399,0.00,-0.00,0.02,0.02
3.409,0.00,-0.00,0.02,0.03
3.419,0.01,-0.00,0.00,0.01
3.429,0.01,-0.00,0.01,0.02
3.439,0.00,-0.01,0.04,0.05
3.449,0.00,-0.00,0.05,0.05
3.459,0.00,-0.00,0.01,0.01
3.469,0.01,-0.01,-0.00,0.01
3.479,0.01,-0.01,0.00,0.01
3.489,0.01,-0.00,0.03,0.04
3.499,0.01,-0.00,0.04,0.04
3.509,0.00,-0.01,-0.01,0.01
3.520,0.01,-0.01,0.01,0.01
3.530,-0.00,-0.00,0.04,0.04
3.540,0.01,-0.00,0.02,0.02
3.550,0.01,-0.01,-0.00,0.02
3.560,0.01,0.00,0.01,0.01
3.570,0.00,0.00,0.04,0.04
3.580,0.00,-0.01,0.02,0.03
3.590,0.01,-0.01,-0.01,0.02
3.600,0.01,-0.01,0.00,0.01
3.610,0.01,-0.01,0.03,0.03
3.620,0.01,-0.00,0.01,0.01
3.630,0.01,-0.00,-0.02,0.02
3.640,0.01,0.00,0.02,0.02
3.650,-0.01,-0.00,0.04,0.04
3.661,0.01,-0.00,-0.01,0.01
3.671,0.01,-0.01,-0.01,0.02
3.681,-0.00,-0.01,0.03,0.03
3.691,0.00,0.00,0.03,0.03
3.701,0.00,-0.00,0.01,0.01
3.711,0.01,-0.01,-0.01,0.01
3.721,0.01,-0.00,0.00,0.01
3.731,0.01,-0.00,0.03,0.04
3.741,0.00,-0.00,0.01,0.01
3.751,0.01,-0.00,0.01,0.01
3.761,0.01,-0.00,0.01,0.01
3.771,-0.00,-0.00,0.02,0.02
3.782,0.01,0.00,0.02,0.02
3.792,0.01,-0.01,0.00,0.01
3.802,0.00,-0.00,0.00,0.01
3.812,0.00,0.00,0.02,0.02
3.822,0.01,-0.00,0.01,0.02
3.832,0.01,-0.02,0.00,0.02
3.842,0.01,-0.01,0.01,0.02
3.852,0.01,-0.00,0.03,0.03
3.862,0.01,-0.01,0.01,0.01
3.872,0.00,-0.01,0.00,0.01
3.882,0.00,-0.00,0.03,0.03
3.892,0.01,-0.01,0.03,0.04
3.902,0.01,-0.00,-0.00,0.01
3.912,0.01,-0.01,-0.01,0.02
3.923,0.00,-0.01,0.01,0.01
3.933,0.00,0.01,0.04,0.04
3.943,-0.00,-0.01,0.01,0.01
3.953,0.00,-0.01,-0.01,0.01
3.963,0.01,-0.01,-0.02,0.02
3.973,-0.01,0.00,0.04,0.04
3.983,-0.00,-0.00,0.05,0.05
3.993,0.01,-0.01,-0.00,0.01
4.003,0.01,-0.01,-0.01,0.02
4.013,0.01,-0.00,0.02,0.02
4.023,0.01,0.00,0.02,0.02
4.033,0.01,-0.00,0.01,0.01
4.043,0.01,-0.00,0.01,0.01
4.053,-0.00,-0.00,0.04,0.04
4.064,-0.00,-0.00,0.02,0.02
4.074,0.01,-0.01,0.00,0.01
4.084,-0.00,-0.00,0.01,0.01
4.094,-0.00,-0.00,0.03,0.03
4.104,0.02,-0.00,0.01,0.02
4.114,0.01,-0.00,-0.01,0.02
4.124,0.01,-0.01,0.01,0.02
4.134,0.01,-0.01,0.01,0.02
4.144,0.00,-0.01,0.01,0.02
4.154,0.01,-0.01,0.02,0.03
4.164,0.01,-0.00,0.02,0.02
4.174,0.00,-0.00,0.02,0.02
4.184,-0.00,-0.00,0.02,0.02
4.194,0.00,-0.00,0.01,0.01
4.205,0.01,-0.01,0.02,0.02
4.215,-0.00,-0.01,0.01,0.01
4.225,0.00,-0.00,0.02,0.02
4.235,0.01,-0.01,0.01,0.02
4.245,0.00,-0.00,-0.00,0.01
4.255,0.00,-0.00,0.01,0.01
4.265,0.02,-0.01,0.02,0.02
4.275,0.00,-0.01,0.02,0.02
4.285,0.01,-0.01,0.01,0.01
4.295,0.00,-0.00,0.02,0.02
4.305,0.00,-0.01,0.03,0.03
4.315,0.00,-0.01,0.01,0.01
4.325,0.00,-0.01,-0.00,0.01
4.336,0.01,-0.01,-0.00,0.01
4.346,0.01,-0.01,-0.00,0.01
4.356,0.01,-0.01,0.01,0.02
4.366,0.00,0.00,0.01,0.01
4.376,0.01,-0.00,0.01,0.02
4.386,0.00,-0.01,0.01,0.02
4.396,0.00,-0.01,0.02,0.03
4.406,-0.00,-0.01,0.01,0.01
4.416,0.01,-0.01,0.01,0.01
4.426,0.00,-0.01,0.01,0.02
4.436,0.00,-0.01,0.02,0.02
4.446,0.00,-0.01,0.01,0.01
4.456,0.00,-0.00,0.01,0.01
4.467,0.00,-0.01,0.01,0.01
4.476,0.01,0.00,0.01,0.01
4.487,0.01,-0.00,0.01,0.01
4.497,0.01,-0.00,-0.00,0.01
4.507,-0.00,-0.00,0.00,0.00
4.517,0.00,-0.00,0.01,0.01
4.527,0.01,-0.00,0.02,0.02
4.537,0.00,0.00,0.00,0.00
4.547,0.00,-0.01,0.00,0.01
4.557,0.00,-0.00,0.01,0.01
4.567,-0.00,-0.00,0.01,0.01
4.577,0.01,0.00,0.00,0.01
4.587,-0.00,0.00,0.01,0.01
4.597,-0.01,-0.00,0.01,0.02
4.608,0.00,-0.01,0.02,0.02
4.618,0.00,-0.01,-0.00,0.01
4.628,0.01,-0.00,0.01,0.01
4.638,0.00,-0.00,0.02,0.02
4.648,0.01,-0.00,0.01,0.01
4.658,0.01,-0.00,0.01,0.02
4.668,0.00,-0.01,0.01,0.01
4.678,0.01,-0.00,-0.00,0.01
4.688,0.01,-0.01,0.01,0.02
4.698,0.00,-0.01,0.01,0.02
4.708,0.01,-0.00,0.02,0.02
4.718,0.00,-0.01,0.03,0.03
4.728,0.01,-0.00,0.02,0.02
4.738,0.01,-0.01,0.01,0.02
4.749,-0.00,-0.01,0.03,0.03
4.759,0.00,-0.01,0.01,0.01
4.769,0.00,-0.01,0.01,0.02
4.779,0.00,-0.01,0.02,0.02
4.789,-0.00,-0.00,0.01,0.01
4.799,-0.00,-0.00,0.01,0.01
4.809,0.01,-0.01,0.00,0.01
4.819,-0.01,-0.01,0.00,0.01
4.829,0.00,-0.01,0.00,0.01
4.839,0.01,0.01,0.01,0.02
4.849,-0.00,0.00,0.02,0.02
4.859,0.01,-0.00,0.01,0.02
4.869,0.01,0.00,0.01,0.01
4.880,0.01,-0.01,0.01,0.02
4.890,0.01,-0.00,0.01,0.01
4.900,0.01,-0.01,0.02,0.02
4.910,0.00,-0.00,0.03,0.03
4.920,-0.00,-0.00,0.03,0.03
4.930,0.00,0.00,0.03,0.03
4.940,0.01,-0.01,0.00,0.01
4.950,-0.00,-0.01,-0.01,0.01
4.960,0.00,-0.00,0.01,0.02
4.970,-0.00,-0.00,0.01,0.01
4.980,0.00,-0.01,0.01,0.01
4.990,0.01,0.00,0.01,0.01
5.000,0.00,-0.00,0.00,0.01
5.010,0.00,-0.00,0.02,0.02
5.020,0.00,-0.01,0.02,0.02
5.031,0.00,-0.01,-0.00,0.01
5.041,0.01,-0.01,0.00,0.01
5.051,0.00,-0.01,0.00,0.01
5.061,0.00,-0.00,0.03,0.03
5.071,0.00,-0.00,0.02,0.02
5.081,0.00,-0.00,0.02,0.02
5.091,0.00,-0.01,0.02,0.02
5.101,-0.00,-0.00,0.02,0.02
5.111,0.01,-0.00,0.01,0.02
5.121,0.01,-0.01,0.00,0.01
5.131,0.01,-0.01,0.01,0.01
5.141,0.01,-0.01,0.00,0.01
5.152,0.02,-0.01,0.01,0.02
5.162,0.00,0.00,0.01,0.02
5.172,0.00,-0.01,0.01,0.01
5.182,0.01,0.00,-0.00,0.01
5.192,0.00,-0.00,0.02,0.02
5.202,-0.00,-0.01,0.02,0.02
5.212,0.00,-0.00,0.02,0.02
5.222,0.01,-0.01,0.02,0.03
5.232,0.01,-0.01,-0.01,0.02
5.242,-0.00,-0.00,0.01,0.01
5.252,-0.00,-0.00,0.04,0.04
5.262,0.01,-0.01,0.01,0.01
5.272,0.01,-0.01,-0.02,0.03
5.283,0.00,-0.00,-0.00,0.00
5.293,-0.01,-0.00,0.02,0.02
5.303,0.00,-0.00,0.01,0.01
5.313,0.01,-0.01,0.00,0.02
5.323,0.01,-0.00,0.01,0.02
5.333,0.01,-0.00,0.03,0.03
5.343,0.01,-0.01,0.02,0.02
5.353,0.01,-0.01,0.02,0.02
5.363,0.00,-0.00,0.02,0.02
5.373,0.00,-0.00,0.04,0.04
5.383,0.01,0.00,-0.01,0.01
5.393,0.01,-0.01,-0.00,0.01
5.403,0.01,0.00,0.02,0.02
5.413,-0.01,-0.00,0.02,0.02
5.424,-0.00,-0.01,0.01,0.01
5.434,0.01,-0.00,0.02,0.02
5.444,0.00,-0.01,0.02,0.02
5.454,0.01,-0.01,0.01,0.02
5.464,-0.00,-0.01,0.00,0.01
5.474,0.01,-0.01,0.02,0.02
5.484,0.01,-0.00,0.01,0.01
5.494,0.01,-0.00,0.01,0.01
5.504,0.00,0.00,0.01,0.01
5.514,0.00,-0.01,0.01,0.02
5.524,0.01,-0.01,0.01,0.02
5.534,0.00,-0.00,0.01,0.01
5.544,0.00,-0.01,0.04,0.04
5.554,0.00,-0.01,0.01,0.01
5.564,0.01,-0.01,0.00,0.01
5.574,0.01,-0.00,0.02,0.02
5.585,0.01,-0.00,-0.00,0.01
5.595,0.01,0.00,0.01,0.01
5.605,0.01,-0.00,0.01,0.02
5.615,0.00,-0.01,0.01,0.01
5.625,-0.00,-0.01,0.01,0.01
5.635,0.01,-0.01,0.01,0.02
5.645,0.01,-0.00,0.01,0.01
5.655,0.01,0.00,-0.00,0.01
5.665,0.00,-0.01,0.02,0.02
5.675,0.00,-0.01,0.01,0.02
5.685,0.01,-0.01,-0.01,0.01
5.695,0.01,-0.00,0.01,0.01
5.705,0.00,0.00,0.02,0.02
5.716,0.00,-0.00,0.00,0.01
5.726,-0.00,-0.01,0.02,0.02
5.736,0.00,-0.00,-0.00,0.01
5.746,0.01,-0.01,0.00,0.02
5.756,0.01,-0.01,0.02,0.02
5.766,0.02,-0.00,-0.01,0.02
5.776,0.01,-0.00,0.02,0.02
5.786,0.00,0.00,0.04,0.04
5.796,0.00,-0.01,0.02,0.02
5.806,0.01,-0.01,0.02,0.03
5.817,0.01,-0.01,0.02,0.03
5.827,0.01,-0.01,-0.00,0.02
5.836,0.01,-0.01,0.01,0.01
5.847,0.01,0.00,0.03,0.03
5.857,0.01,-0.01,0.01,0.01
5.867,0.01,-0.01,0.01,0.01
5.877,0.00,-0.00,0.01,0.01
5.887,0.01,-0.00,0.03,0.03
5.897,0.00,0.01,0.02,0.02
5.907,-0.00,0.00,0.00,0.00
5.917,0.00,-0.00,0.01,0.01
5.927,0.00,-0.00,0.02,0.02
5.937,0.01,0.00,0.02,0.02
5.947,0.01,-0.00,0.00,0.01
5.957,0.01,-0.01,-0.01,0.01
5.967,0.01,-0.01,0.01,0.01
5.978,-0.00,0.00,0.01,0.02
5.988,0.00,-0.00,0.02,0.02
5.998,0.01,0.00,0.01,0.02
6.008,-0.00,0.00,0.00,0.00
6.018,0.01,-0.00,0.02,0.02
6.028,0.01,-0.01,0.02,0.02
6.038,0.01,-0.00,0.01,0.02
6.048,0.01,-0.00,0.00,0.01
6.058,0.00,-0.00,0.01,0.01
6.068,0.00,-0.01,0.01,0.02
6.078,0.01,-0.01,0.01,0.02
6.088,0.01,0.00,0.01,0.01
6.098,0.01,-0.00,0.00,0.01
6.109,0.00,-0.01,0.01,0.01
6.119,0.01,-0.01,0.02,0.02
6.129,0.01,-0.01,0.02,0.02
6.139,0.01,-0.00,0.00,0.01
6.149,0.01,-0.00,0.01,0.02
6.159,0.01,0.00,0.01,0.02
6.169,0.00,0.01,0.00,0.01
6.179,-0.00,-0.00,0.00,0.00
6.189,0.00,-0.00,0.01,0.01
6.199,0.00,0.00,0.01,0.01
6.209,-0.01,-0.01,0.01,0.01
6.219,-0.00,-0.00,0.02,0.02
6.229,0.01,-0.00,-0.00,0.01
6.240,0.01,-0.00,-0.01,0.01
6.250,0.01,-0.01,0.01,0.02
6.260,0.01,0.00,0.01,0.02
6.270,0.01,0.00,0.01,0.01
6.280,0.00,-0.01,0.01,0.02
6.290,-0.00,-0.00,0.04,0.04
6.300,0.00,-0.00,0.02,0.02
6.310,0.00,-0.01,-0.01,0.01
6.320,0.00,-0.00,0.02,0.02
6.330,0.00,-0.01,0.02,0.02
6.340,0.01,-0.02,0.00,0.02
6.350,0.01,-0.00,0.01,0.01
6.360,0.01,-0.01,0.01,0.01
6.370,0.00,-0.01,0.00,0.01
6.381,0.01,-0.01,-0.01,0.01
6.390,0.00,-0.00,0.01,0.01
6.401,-0.00,0.00,0.01,0.01
6.411,0.01,-0.01,0.00,0.01
6.421,0.01,-0.00,0.02,0.02
6.431,-0.00,0.00,0.03,0.03
6.441,-0.00,-0.00,0.02,0.02
6.451,0.01,0.00,0.01,0.01
6.461,-0.00,0.00,0.01,0.02
6.471,0.00,-0.00,0.02,0.02
6.481,0.01,0.00,0.01,0.02
6.491,0.01,-0.00,-0.01,0.02
6.502,0.01,-0.01,0.00,0.01
6.511,0.00,-0.00,0.00,0.01
6.521,0.01,-0.01,0.02,0.02
6.532,0.01,-0.01,0.02,0.02
6.542,0.00,-0.01,0.01,0.01
6.552,0.01,-0.01,0.01,0.01
6.562,0.01,-0.01,-0.00,0.01
6.572,0.00,-0.01,0.02,0.02
6.582,0.01,-0.00,0.01,0.01
6.592,0.02,-0.01,-0.01,0.02
6.602,0.01,-0.00,0.00,0.01
6.612,0.01,0.00,0.01,0.01
6.622,0.01,0.00,0.01,0.01
6.632,0.00,-0.00,0.01,0.01
6.642,0.00,-0.00,0.01,0.01
6.652,0.00,-0.00,0.01,0.01
6.663,-0.00,-0.00,0.02,0.02
6.672,-0.00,-0.00,0.02,0.02
6.683,0.00,-0.00,0.00,0.00
6.693,0.01,-0.01,0.02,0.02
6.703,-0.00,0.00,0.02,0.02
6.713,-0.01,-0.01,-0.00,0.01
6.723,0.02,-0.01,-0.04,0.04
6.733,-0.01,-0.00,0.06,0.06
6.743,0.01,-0.01,0.01,0.01
6.753,0.02,-0.01,-0.01,0.02
6.763,0.00,-0.01,0.02,0.02
6.773,-0.00,-0.00,0.02,0.02
6.783,0.01,-0.01,-0.01,0.01
6.794,-0.00,-0.01,0.00,0.01
6.803,0.00,-0.00,0.01,0.01
6.814,0.00,-0.00,0.02,0.02
6.824,0.00,-0.00,0.02,0.02
6.834,0.00,-0.00,0.01,0.01
6.844,0.01,-0.00,0.01,0.01
6.854,0.01,-0.00,0.01,0.02
6.864,0.00,-0.01,0.02,0.02
6.874,-0.00,-0.00,0.02,0.02
6.884,0.00,-0.00,0.02,0.02
6.894,0.01,-0.01,0.01,0.02
6.904,0.01,-0.01,0.00,0.01
6.914,0.01,0.00,0.02,0.02
6.924,0.01,-0.01,0.00,0.01
6.934,0.00,-0.01,0.01,0.01
6.945,0.01,-0.01,0.03,0.03
6.955,0.00,0.00,0.02,0.02
6.965,-0.00,-0.00,-0.00,0.00
6.975,0.02,-0.01,-0.02,0.03
6.985,0.00,-0.00,0.03,0.03
6.995,-0.01,0.00,0.04,0.04
7.005,0.01,-0.01,0.00,0.01
7.015,0.01,-0.01,0.02,0.02
7.025,-0.00,-0.01,0.02,0.02
7.035,0.01,-0.01,0.00,0.01
7.045,0.01,-0.00,-0.01,0.01
7.056,0.01,-0.01,0.02,0.02
7.065,0.01,-0.00,0.01,0.01
7.076,0.01,-0.01,0.01,0.01
7.086,0.00,-0.01,0.01,0.02
7.096,0.01,-0.01,0.02,0.03
7.106,0.01,-0.00,0.02,0.02
7.116,0.00,-0.01,0.01,0.01
7.126,0.00,-0.01,-0.00,0.01
7.136,0.01,-0.01,0.01,0.02
7.146,0.00,-0.01,0.02,0.03
7.156,0.01,-0.00,0.01,0.01
7.166,0.02,0.00,-0.01,0.02
7.176,0.00,-0.01,0.01,0.01
7.186,0.00,-0.00,0.04,0.04
7.196,0.01,-0.01,0.01,0.02
7.207,0.01,-0.01,-0.01,0.01
7.217,0.01,-0.01,-0.01,0.02
7.227,-0.00,-0.00,0.02,0.02
7.237,0.00,-0.01,0.04,0.04
7.247,0.01,-0.01,-0.01,0.01
7.257,0.01,-0.00,-0.01,0.02
7.267,0.01,-0.01,0.00,0.01
7.277,0.01,-0.01,0.02,0.03
7.287,0.01,-0.01,-0.00,0.01
7.297,0.00,0.00,0.02,0.02
7.307,-0.00,-0.01,0.04,0.04
7.317,0.01,-0.01,0.02,0.02
7.327,0.01,-0.01,-0.01,0.02
7.338,0.01,-0.01,-0.01,0.02
7.348,0.01,-0.02,-0.02,0.03
7.358,0.00,-0.00,0.01,0.01
7.368,0.01,-0.01,0.02,0.02
7.378,0.01,-0.01,0.02,0.03
7.388,0.01,0.00,0.01,0.01
7.398,0.00,-0.00,0.01,0.01
7.408,0.01,-0.00,0.01,0.01
7.418,0.01,-0.00,0.02,0.02
7.428,0.01,-0.00,0.01,0.01
7.438,0.00,-0.01,-0.00,0.01
7.448,0.01,0.00,0.00,0.01
7.458,0.01,-0.01,0.00,0.01
7.468,0.01,-0.01,-0.00,0.01
7.478,0.00,0.00,0.02,0.03
7.489,0.00,-0.01,0.01,0.01
7.499,0.01,-0.01,0.02,0.03
7.509,0.00,-0.01,0.01,0.02
7.519,0.01,-0.00,0.02,0.03
7.529,0.01,-0.01,0.01,0.02
7.539,0.01,-0.01,0.01,0.02
7.549,0.01,-0.01,0.01,0.02
7.559,0.01,-0.00,0.01,0.01
7.569,0.01,-0.01,0.00,0.01
7.579,-0.00,-0.01,-0.00,0.01
7.589,0.00,-0.00,0.02,0.02
7.600,0.00,-0.01,0.01,0.02
7.609,0.00,-0.00,0.01,0.01
7.619,0.01,-0.01,0.01,0.01
7.630,0.01,-0.01,0.02,0.02
7.640,0.01,-0.01,0.01,0.01
7.650,0.00,-0.01,-0.00,0.01
7.660,0.01,-0.01,0.01,0.02
7.670,0.00,-0.01,0.02,0.02
7.680,0.01,-0.01,0.01,0.01
7.690,0.00,-0.01,0.02,0.02
7.700,-0.00,-0.01,0.02,0.02
7.710,-0.00,-0.01,0.01,0.01
7.720,0.01,-0.00,0.02,0.02
7.731,-0.00,-0.01,0.02,0.02
7.740,0.01,-0.01,0.01,0.02
7.751,0.01,-0.01,0.00,0.01
7.761,0.00,-0.00,-0.00,0.01
7.771,0.01,-0.01,-0.00,0.01
7.781,0.00,-0.01,0.01,0.02
7.791,0.01,-0.00,0.01,0.02
7.801,0.01,-0.01,0.01,0.02
7.811,0.00,-0.01,0.02,0.02
7.821,-0.00,-0.00,0.01,0.01
7.831,0.00,-0.01,0.01,0.01
7.841,0.01,-0.01,0.01,0.01
7.851,0.00,-0.00,-0.00,0.00
7.861,0.01,-0.01,-0.00,0.01
7.871,0.01,-0.01,0.02,0.02
7.882,0.00,-0.01,0.01,0.01
7.891,0.01,-0.01,-0.00,0.01
7.902,0.01,-0.01,0.00,0.01
7.912,-0.00,0.00,0.01,0.01
7.922,0.00,-0.00,0.01,0.01
7.932,0.00,-0.01,-0.01,0.01
7.942,0.00,-0.01,0.01,0.01
7.952,0.01,-0.00,0.01,0.01
7.962,0.00,-0.01,0.01,0.01
7.972,-0.00,-0.01,0.00,0.01
7.982,0.01,-0.02,0.01,0.02
7.992,0.00,-0.00,0.01,0.01
8.002,-0.00,-0.00,0.01,0.01
8.012,0.01,-0.01,0.01,0.01
8.022,0.01,0.00,0.02,0.02
8.033,0.00,-0.00,0.01,0.01
8.043,0.02,-0.00,0.01,0.02
8.053,0.01,0.00,-0.01,0.01
8.063,0.01,-0.00,0.01,0.01
8.073,-0.00,-0.00,0.01,0.01
8.083,-0.00,-0.01,0.01,0.01
8.093,0.00,-0.01,0.01,0.01
8.103,0.00,0.00,0.02,0.02
8.113,0.00,-0.00,0.02,0.02
8.123,0.01,-0.01,0.00,0.01
8.133,0.00,-0.00,0.01,0.01
8.143,0.01,-0.00,0.01,0.02
8.153,0.01,-0.00,0.01,0.02
8.163,-0.00,-0.01,0.01,0.02
8.174,0.00,-0.01,0.01,0.01
8.184,0.00,0.00,0.01,0.01
8.194,0.01,-0.01,0.01,0.02
8.204,0.00,-0.00,0.01,0.01
8.214,0.00,-0.00,0.01,0.01
8.224,0.01,-0.01,-0.00,0.01
8.234,0.00,-0.01,0.00,0.01
8.244,0.01,-0.00,0.02,0.02
8.254,0.01,-0.00,-0.00,0.01
8.264,0.01,-0.00,0.01,0.01
8.274,0.01,-0.01,0.01,0.02
8.284,0.01,-0.01,0.01,0.02
8.294,0.01,-0.00,0.01,0.01
8.305,0.01,-0.00,0.00,0.01
8.315,0.01,-0.01,0.02,0.02
8.325,-0.00,-0.00,0.01,0.01
8.335,0.01,-0.00,0.01,0.01
8.345,0.01,-0.00,0.00,0.01
8.355,-0.00,-0.01,0.02,0.02
8.365,0.00,0.00,0.01,0.01
8.375,0.01,-0.00,0.01,0.01
8.385,0.01,-0.00,0.01,0.01
8.395,0.01,-0.01,0.02,0.02
8.405,0.01,-0.01,0.00,0.01
8.416,0.00,0.00,0.01,0.01
8.425,0.01,-0.01,0.02,0.02
8.435,0.01,-0.00,0.01,0.01
8.446,0.01,-0.00,0.01,0.01
8.456,0.00,-0.00,0.01,0.01
8.466,0.01,-0.01,0.02,0.03
8.476,0.01,0.00,0.02,0.02
8.486,0.00,-0.01,0.01,0.02
8.496,0.00,-0.00,0.01,0.01
8.506,0.01,-0.00,0.01,0.01
8.516,0.01,-0.01,0.01,0.02
8.526,0.00,-0.00,-0.00,0.01
8.536,0.01,-0.00,0.01,0.01
8.546,0.00,-0.00,0.02,0.02
8.556,0.01,0.00,0.02,0.02
8.567,0.01,0.00,0.00,0.01
8.576,-0.00,-0.01,0.01,0.02
8.586,0.01,0.00,0.02,0.02
8.597,0.00,-0.01,0.00,0.01
8.607,0.00,-0.01,0.00,0.01
8.617,-0.00,-0.01,0.02,0.02
8.627,0.01,-0.01,0.03,0.03
8.637,0.00,-0.01,0.02,0.02
8.647,0.00,-0.01,0.01,0.01
8.657,0.01,-0.01,-0.00,0.01
8.667,0.00,-0.01,0.01,0.01
8.677,0.01,-0.01,0.02,0.02
8.687,0.00,-0.01,0.00,0.01
8.697,0.00,-0.01,0.02,0.02
8.707,0.00,-0.00,0.02,0.02
8.717,0.00,-0.01,0.00,0.01
8.728,0.01,-0.01,0.00,0.01
8.738,0.00,-0.01,0.01,0.01
8.748,0.01,-0.01,0.02,0.02
8.758,0.01,-0.01,0.02,0.02
8.768,0.00,-0.00,0.01,0.01
8.778,0.00,-0.01,0.01,0.01
8.788,0.00,-0.01,0.02,0.02
8.798,0.02,-0.01,0.00,0.02
8.808,0.01,-0.01,-0.02,0.03
8.818,0.00,-0.01,0.02,0.02
8.828,0.00,-0.01,0.02,0.02
8.838,0.00,-0.01,0.01,0.02
8.848,0.00,-0.01,0.01,0.01
8.859,-0.00,0.00,0.02,0.02
8.869,0.00,-0.00,0.02,0.02
8.879,0.00,-0.01,0.01,0.02
8.889,0.01,-0.00,0.01,0.01
8.899,0.00,0.00,0.01,0.01
8.909,-0.00,0.00,0.02,0.02
8.919,0.02,-0.01,0.00,0.02
8.929,0.01,-0.00,-0.01,0.01
8.939,0.00,-0.01,0.00,0.01
8.949,0.01,-0.01,-0.01,0.02
8.959,0.00,-0.00,-0.00,0.00
8.969,0.00,-0.01,0.02,0.02
8.979,0.00,-0.00,0.03,0.03
8.990,0.00,-0.00,0.02,0.02
8.999,0.01,-0.01,0.01,0.01
9.010,0.01,-0.00,0.01,0.02
9.020,0.01,-0.01,0.02,0.02
9.030,0.01,-0.01,0.02,0.02
9.040,0.01,-0.00,0.01,0.01
9.050,0.01,-0.00,-0.00,0.01
9.060,0.00,-0.00,0.01,0.01
9.070,0.01,-0.00,0.01,0.01
9.080,0.00,-0.00,0.01,0.01
9.090,0.00,-0.01,0.00,0.01
9.100,0.00,-0.01,0.01,0.01
9.110,0.01,-0.01,0.02,0.03
9.120,-0.00,-0.01,0.02,0.02
9.131,0.00,-0.01,0.01,0.02
9.141,0.01,-0.01,0.01,0.02
9.151,0.00,-0.01,0.02,0.02
9.161,-0.00,-0.01,0.01,0.02
9.171,0.01,-0.00,-0.00,0.01
9.181,0.01,-0.01,-0.00,0.01
9.191,0.00,-0.01,0.01,0.01
9.201,0.01,0.00,0.02,0.02
9.211,0.01,-0.01,-0.01,0.02
9.221,0.01,-0.01,-0.00,0.01
9.231,0.01,-0.00,0.01,0.01
9.241,0.01,-0.00,0.01,0.01
9.251,-0.00,-0.01,0.01,0.01
9.262,0.00,-0.01,0.02,0.02
9.271,0.01,-0.00,0.01,0.01
9.282,0.00,-0.01,-0.00,0.01
9.292,0.00,-0.00,0.01,0.01
9.302,0.01,-0.01,0.01,0.02
9.312,0.01,-0.01,-0.00,0.02
9.322,0.01,-0.01,0.00,0.01
9.332,0.00,-0.01,0.01,0.01
9.342,0.01,-0.00,0.02,0.02
9.352,0.01,-0.00,0.01,0.01
9.362,0.01,-0.01,0.02,0.02
9.372,0.00,-0.01,0.02,0.02
9.382,0.01,-0.00,-0.00,0.01
9.392,0.01,-0.00,-0.01,0.01
9.402,0.01,-0.01,0.01,0.02
9.413,0.01,-0.01,0.01,0.02
9.423,0.01,-0.01,0.02,0.02
9.433,0.02,-0.00,0.01,0.02
9.443,0.00,-0.01,0.02,0.02
9.453,0.00,-0.00,0.02,0.02
9.463,-0.00,0.00,0.02,0.02
9.473,0.01,-0.01,0.00,0.01
9.483,0.01,-0.01,0.01,0.01
9.493,0.00,-0.00,0.01,0.01
9.503,0.01,-0.01,0.01,0.01
9.513,0.01,-0.01,0.00,0.01
9.524,0.01,-0.01,0.04,0.04
9.533,0.00,-0.01,0.02,0.02
9.544,0.00,-0.01,0.00,0.01
9.554,-0.00,-0.01,0.02,0.02
9.564,0.01,-0.01,-0.02,0.03
9.574,0.01,-0.00,0.01,0.02
9.584,0.00,-0.00,0.05,0.05
9.594,0.01,-0.01,0.01,0.02
9.604,0.02,-0.00,-0.00,0.02
9.614,-0.00,-0.01,0.01,0.01
9.624,-0.00,-0.00,0.03,0.03
9.634,0.00,-0.00,0.00,0.01
9.644,0.01,-0.01,0.01,0.01
9.654,0.00,-0.01,0.02,0.02
9.664,0.01,-0.01,-0.01,0.01
9.675,0.02,-0.01,-0.00,0.02
9.684,0.01,-0.00,0.02,0.02
9.695,0.01,-0.01,-0.00,0.02
9.705,-0.01,-0.01,0.04,0.04
9.715,0.01,-0.00,0.00,0.01
9.725,0.00,-0.01,0.01,0.01
9.735,-0.00,-0.00,0.02,0.02
9.745,0.01,-0.01,0.02,0.03
9.755,0.01,-0.01,-0.00,0.01
9.765,0.00,-0.00,0.00,0.00
9.775,0.01,-0.01,0.02,0.03
9.785,0.00,-0.00,0.01,0.02
9.795,0.01,-0.01,0.02,0.02
9.805,0.01,-0.01,0.00,0.01
9.816,0.01,-0.01,-0.00,0.02
9.826,0.01,-0.01,0.02,0.02
9.836,0.00,-0.00,0.01,0.01
9.846,0.01,-0.01,0.00,0.01
9.856,0.01,-0.01,0.00,0.01
9.866,0.00,-0.01,0.01,0.02
9.876,0.01,-0.00,0.01,0.02
9.886,0.02,-0.01,0.01,0.02
9.896,0.01,-0.01,0.01,0.02
9.906,0.01,-0.01,0.00,0.01
9.916,0.02,-0.01,-0.00,0.02
9.926,0.01,-0.00,0.02,0.02
9.936,0.01,-0.00,0.02,0.02
9.946,0.00,-0.01,0.01,0.02
9.957,0.01,-0.01,0.01,0.02
9.967,0.02,-0.00,0.00,0.02
9.977,0.01,-0.01,0.00,0.02
9.987,0.01,-0.01,0.01,0.02
9.997,0.00,-0.01,0.02,0.02
10.007,0.02,-0.01,0.00,0.02
10.017,0.00,-0.01,0.01,0.02
10.027,0.01,-0.01,0.01,0.02
10.037,0.01,-0.01,0.00,0.01
10.047,0.00,-0.00,0.03,0.03
10.057,0.00,-0.01,0.03,0.03
10.068,0.01,-0.01,-0.00,0.02
10.077,0.01,0.00,0.02,0.02
10.087,0.01,-0.01,0.00,0.02
10.097,0.01,-0.01,0.00,0.01
10.108,0.00,-0.01,0.01,0.02
10.118,0.01,-0.00,-0.00,0.01
10.128,0.01,-0.01,0.02,0.02
10.138,0.01,-0.01,0.01,0.02
10.148,0.01,-0.00,-0.01,0.01
10.158,0.01,-0.01,0.02,0.02
10.168,0.01,-0.01,0.01,0.02
10.178,0.00,-0.01,0.01,0.01
10.188,0.01,-0.01,0.01,0.02
10.198,0.00,-0.00,0.01,0.01
10.208,0.01,-0.01,0.01,0.01
10.218,0.00,-0.01,-0.00,0.01
10.229,0.01,-0.01,0.02,0.02
10.239,0.01,-0.01,0.01,0.02
10.249,0.01,-0.01,0.00,0.01
10.259,0.00,0.00,0.01,0.01
10.269,0.00,-0.00,0.01,0.01
10.279,0.00,-0.00,0.00,0.01
10.289,0.01,0.00,0.02,0.02
10.299,0.01,-0.01,0.01,0.02
10.309,0.01,-0.01,-0.00,0.02
10.319,0.00,-0.00,0.01,0.02
10.330,0.01,0.00,-0.00,0.01
10.339,0.01,-0.00,-0.00,0.01
10.349,0.01,-0.00,-0.01,0.02
10.359,0.01,-0.00,-0.00,0.01
10.370,0.01,-0.01,0.02,0.02
10.380,0.01,-0.00,0.04,0.04
10.390,-0.00,-0.00,0.01,0.01
10.400,0.02,0.00,-0.08,0.08
10.410,-0.00,-0.02,0.10,0.10
10.420,0.01,-0.01,0.00,0.01
10.430,0.01,-0.00,0.01,0.02
10.440,-0.00,0.04,0.01,0.04
10.450,0.00,-0.04,0.01,0.04
10.460,0.01,-0.01,0.03,0.03
10.470,0.01,-0.00,0.00,0.01
10.480,0.01,-0.01,0.01,0.02
10.490,0.01,-0.00,0.02,0.02
10.500,0.01,-0.01,0.00,0.01
10.511,0.00,-0.00,0.02,0.02
10.521,0.00,-0.01,0.02,0.02
10.531,0.00,-0.02,0.01,0.02
10.541,0.01,-0.01,0.02,0.02
10.551,-0.00,-0.01,0.02,0.03
10.561,-0.00,0.01,0.05,0.05
10.571,0.02,-0.00,-0.06,0.06
10.581,0.02,-0.02,-0.02,0.03
10.591,0.00,0.00,0.03,0.03
10.601,0.01,-0.01,-0.01,0.01
10.611,-0.01,-0.00,0.02,0.02
