time,ax,ay,az,atotal
0.000,-0.02,0.04,0.07,0.08
0.010,-0.02,0.01,-0.04,0.04
0.020,-0.02,0.00,-0.10,0.10
0.030,-0.04,0.03,-0.11,0.13
0.040,-0.04,0.04,-0.06,0.09
0.050,-0.05,0.04,-0.00,0.06
0.060,-0.07,0.05,0.03,0.09
0.070,-0.07,0.06,0.02,0.09
0.081,-0.06,0.05,0.03,0.08
0.090,-0.05,0.04,0.03,0.07
0.101,-0.04,0.03,0.06,0.08
0.111,-0.02,0.03,0.08,0.09
0.121,-0.06,0.05,0.04,0.08
0.131,-0.05,0.04,0.02,0.06
0.141,-0.04,0.03,-0.02,0.06
0.151,-0.06,0.06,-0.06,0.10
0.161,-0.05,0.07,-0.07,0.11
0.171,-0.05,0.07,-0.03,0.09
0.181,-0.05,0.02,-0.01,0.06
0.191,-0.05,0.02,-0.04,0.07
0.201,-0.05,0.04,-0.01,0.06
0.211,-0.06,0.04,0.04,0.08
0.221,-0.05,0.05,0.03,0.08
0.232,-0.04,0.05,0.02,0.07
0.242,-0.06,0.07,0.03,0.10
0.252,-0.06,0.08,0.06,0.12
0.262,-0.05,0.06,0.07,0.11
0.272,-0.04,0.05,-0.01,0.06
0.282,-0.03,0.02,-0.03,0.04
0.292,-0.03,0.01,-0.02,0.03
0.302,-0.05,0.02,-0.03,0.06
0.312,-0.06,0.04,-0.03,0.07
0.322,-0.05,0.03,-0.03,0.06
0.332,-0.03,0.02,0.04,0.05
0.342,-0.04,0.03,0.06,0.09
0.352,-0.04,0.05,0.06,0.09
0.363,-0.05,0.07,0.05,0.10
0.373,-0.04,0.06,0.05,0.08
0.383,-0.04,0.03,-0.02,0.06
0.393,-0.03,0.01,-0.05,0.06
0.403,-0.04,0.02,-0.07,0.08
0.413,-0.06,0.04,-0.05,0.09
0.423,-0.05,0.05,-0.03,0.08
0.433,-0.05,0.06,-0.01,0.08
0.443,-0.05,0.06,0.04,0.09
0.453,-0.05,0.05,0.07,0.10
0.463,-0.05,0.04,0.05,0.08
0.473,-0.06,0.04,0.04,0.08
0.483,-0.05,0.03,0.01,0.07
0.493,-0.04,0.01,-0.02,0.04
0.504,-0.04,0.03,-0.06,0.08
0.514,-0.04,0.05,-0.06,0.08
0.524,-0.05,0.05,-0.01,0.08
0.534,-0.05,0.06,0.02,0.09
0.544,-0.04,0.05,0.05,0.08
0.554,-0.02,0.03,0.04,0.06
0.564,-0.03,0.02,0.01,0.04
0.574,-0.03,0.03,-0.01,0.04
0.584,-0.03,0.03,0.00,0.05
0.594,-0.04,0.05,0.05,0.08
0.604,-0.05,0.03,-0.00,0.06
0.614,-0.05,0.03,-0.06,0.08
0.625,-0.05,0.03,-0.05,0.07
0.634,-0.07,0.06,-0.02,0.09
0.644,-0.06,0.05,0.04,0.09
0.655,-0.05,0.05,0.04,0.08
0.665,-0.05,0.04,0.00,0.07
0.675,-0.04,0.03,0.02,0.06
0.685,-0.04,0.05,0.01,0.06
0.695,-0.04,0.04,0.00,0.06
0.705,-0.04,0.02,0.01,0.05
0.715,-0.03,-0.01,0.03,0.04
0.725,-0.02,0.00,0.01,0.03
0.735,-0.04,0.02,0.01,0.04
0.745,-0.06,0.05,-0.01,0.07
0.755,-0.06,0.07,-0.01,0.10
0.766,-0.06,0.08,-0.01,0.10
0.775,-0.05,0.06,-0.00,0.08
0.786,-0.04,0.03,0.02,0.06
0.796,-0.05,0.03,0.01,0.06
0.806,-0.04,0.04,-0.04,0.07
0.816,-0.04,0.03,-0.03,0.06
0.826,-0.04,0.04,-0.00,0.06
0.836,-0.04,0.04,0.00,0.06
0.846,-0.04,0.02,0.02,0.05
0.856,-0.04,0.03,0.03,0.06
0.866,-0.07,0.06,0.06,0.11
0.876,-0.01,0.02,0.02,0.03
0.886,-0.04,0.03,0.06,0.07
0.896,-0.03,0.02,0.01,0.04
0.907,-0.03,0.03,-0.04,0.06
0.917,-0.03,0.04,-0.02,0.05
0.927,-0.04,0.04,0.00,0.06
0.937,-0.04,0.06,0.03,0.08
0.947,-0.04,0.04,0.04,0.07
0.957,-0.04,0.06,-0.02,0.07
0.967,-0.03,0.04,-0.02,0.05
0.977,-0.03,0.03,-0.05,0.06
0.987,-0.04,0.03,-0.02,0.05
0.997,-0.07,0.05,0.03,0.09
1.007,-0.01,0.04,-0.02,0.05
1.018,-0.04,0.04,0.02,0.06
1.028,-0.05,0.04,0.03,0.07
1.037,-0.04,0.02,-0.01,0.04
1.047,-0.03,0.01,0.01,0.04
1.058,-0.05,0.03,0.03,0.07
1.068,-0.05,0.03,0.06,0.08
1.078,-0.03,0.02,0.05,0.06
1.088,-0.03,0.02,0.01,0.04
1.098,-0.03,0.05,-0.04,0.07
1.108,-0.03,0.04,-0.03,0.06
1.118,-0.05,0.05,-0.02,0.07
1.128,-0.04,0.04,-0.01,0.06
1.138,-0.03,0.03,0.00,0.05
1.148,-0.04,0.03,0.01,0.05
1.158,-0.05,0.03,0.02,0.06
1.168,-0.04,0.03,0.02,0.05
1.179,-0.01,0.02,0.02,0.03
1.189,-0.03,0.02,-0.00,0.04
1.199,-0.03,0.02,0.00,0.04
1.209,-0.03,0.04,-0.02,0.05
1.219,-0.04,0.04,-0.03,0.06
1.229,-0.05,0.03,-0.01,0.06
1.239,-0.03,0.03,0.03,0.06
1.249,-0.04,0.03,0.04,0.06
1.259,-0.04,0.04,0.01,0.06
1.269,-0.02,0.03,0.01,0.04
1.279,-0.03,0.03,-0.01,0.05
1.289,-0.04,0.04,0.00,0.06
1.299,-0.04,0.04,-0.02,0.06
1.309,-0.04,0.03,-0.03,0.06
1.320,-0.05,0.03,0.01,0.06
1.330,-0.04,0.03,0.02,0.06
1.340,-0.03,0.02,0.02,0.04
1.350,-0.04,0.04,0.02,0.06
1.360,-0.03,0.04,0.05,0.07
1.370,-0.03,0.04,0.05,0.07
1.380,-0.03,0.03,0.03,0.05
1.390,-0.03,0.03,-0.02,0.05
1.400,-0.03,0.02,-0.05,0.06
1.410,-0.04,0.03,-0.04,0.07
1.420,-0.04,0.04,-0.00,0.05
1.430,-0.04,0.04,0.04,0.07
1.440,-0.04,0.04,0.05,0.07
1.451,-0.03,0.03,0.04,0.06
1.460,-0.02,0.00,0.04,0.04
1.471,-0.04,0.03,0.09,0.10
1.481,0.02,-0.01,-0.10,0.11
1.491,-0.03,0.02,0.00,0.04
1.501,-0.03,0.01,-0.06,0.07
1.511,-0.04,0.03,-0.01,0.05
1.521,-0.03,0.03,0.04,0.06
1.531,-0.04,0.04,0.04,0.07
1.541,-0.04,0.05,0.04,0.07
1.551,-0.03,0.04,0.02,0.06
1.561,-0.03,0.03,0.01,0.05
1.571,-0.03,0.03,0.01,0.04
1.581,-0.03,0.02,0.00,0.04
1.592,-0.02,0.01,-0.03,0.04
1.602,-0.02,0.02,-0.01,0.03
1.612,-0.03,0.02,-0.03,0.04
1.622,-0.03,0.02,-0.01,0.04
1.632,-0.03,0.03,0.01,0.04
1.642,-0.02,0.03,0.00,0.04
1.652,-0.03,0.03,0.00,0.04
1.662,-0.04,0.03,0.01,0.05
1.672,-0.04,0.03,0.02,0.05
1.682,-0.04,0.04,0.03,0.07
1.692,-0.03,0.03,0.05,0.06
1.702,-0.02,0.02,0.01,0.03
1.712,-0.01,0.02,-0.03,0.03
1.722,-0.00,0.02,-0.05,0.05
1.733,-0.02,0.03,-0.03,0.04
1.743,-0.03,0.02,-0.01,0.03
1.753,-0.04,0.02,-0.01,0.05
1.763,-0.05,0.02,-0.00,0.06
1.773,-0.08,0.08,0.03,0.12
1.783,-0.02,0.03,0.08,0.09
1.793,-0.04,0.05,0.04,0.08
1.803,-0.01,0.03,0.04,0.05
1.813,-0.02,0.01,0.00,0.02
1.823,-0.02,0.00,-0.03,0.03
1.833,-0.02,-0.00,-0.02,0.03
1.843,-0.03,-0.01,0.01,0.03
1.853,-0.03,0.00,0.02,0.03
1.863,-0.02,0.02,0.03,0.04
1.874,-0.03,0.04,0.02,0.05
1.884,-0.03,0.06,0.02,0.08
1.894,-0.04,0.06,0.00,0.07
1.904,-0.04,0.04,-0.01,0.05
1.914,-0.03,0.01,-0.02,0.04
1.924,-0.03,0.00,-0.02,0.03
1.934,-0.03,-0.00,-0.01,0.03
1.944,-0.03,0.01,-0.01,0.03
1.954,-0.03,0.03,0.01,0.05
1.964,-0.02,0.03,0.00,0.04
1.974,-0.02,0.03,0.02,0.04
1.984,-0.02,0.03,-0.00,0.04
1.995,-0.04,0.03,-0.01,0.05
2.004,-0.05,0.03,-0.01,0.06
2.015,-0.05,0.04,0.02,0.06
2.025,-0.04,0.03,0.03,0.06
2.035,-0.03,0.02,0.03,0.05
2.045,-0.01,0.00,0.03,0.03
2.055,-0.01,0.01,0.00,0.01
2.065,-0.01,0.02,0.00,0.03
2.075,-0.03,0.03,0.01,0.05
2.085,-0.04,0.03,-0.00,0.05
2.095,-0.03,0.03,-0.00,0.04
2.105,-0.03,0.03,0.01,0.04
2.116,-0.04,0.02,0.04,0.06
2.125,-0.02,0.02,0.02,0.03
2.136,-0.01,0.02,0.01,0.03
2.146,-0.03,0.01,0.01,0.03
2.156,-0.02,0.01,-0.01,0.02
2.166,-0.01,0.01,-0.01,0.02
2.176,-0.01,0.01,0.00,0.02
2.186,-0.03,0.01,0.00,0.03
2.196,-0.01,0.01,0.01,0.02
2.206,-0.02,0.02,0.02,0.03
2.216,-0.02,0.02,0.02,0.04
2.226,-0.02,0.00,0.03,0.03
2.236,-0.01,0.01,-0.00,0.02
2.246,-0.07,0.04,-0.07,0.10
2.256,0.01,-0.01,0.02,0.03
2.266,-0.02,0.02,-0.03,0.04
2.277,-0.02,0.01,-0.01,0.02
2.287,-0.02,0.01,0.04,0.05
2.297,-0.02,0.02,0.01,0.03
2.307,-0.02,0.02,-0.00,0.03
2.317,-0.03,0.02,0.02,0.04
2.327,-0.01,0.01,0.04,0.04
2.337,-0.03,0.02,0.01,0.04
2.347,0.00,-0.00,0.08,0.08
2.357,-0.02,0.02,-0.02,0.03
2.367,-0.03,0.02,-0.01,0.03
2.377,-0.02,0.02,-0.01,0.02
2.387,-0.01,0.00,0.02,0.02
2.397,0.01,-0.01,0.03,0.03
2.407,-0.00,-0.00,0.02,0.02
2.418,-0.01,0.01,-0.01,0.02
2.428,-0.00,0.00,-0.01,0.01
2.438,-0.02,0.01,0.01,0.02
2.448,-0.02,0.03,0.03,0.05
2.458,-0.02,0.03,0.05,0.06
2.468,-0.03,0.03,0.01,0.04
2.478,-0.01,0.01,-0.02,0.02
2.488,-0.02,0.00,-0.01,0.02
2.498,-0.01,0.01,0.02,0.03
2.508,-0.00,-0.00,0.03,0.03
2.518,-0.00,0.00,0.03,0.03
2.528,-0.01,0.01,0.02,0.02
2.538,-0.01,0.01,-0.02,0.02
2.548,-0.01,0.02,-0.02,0.03
2.559,-0.02,0.01,-0.04,0.05
2.569,-0.01,0.01,0.00,0.01
2.579,-0.02,0.02,0.02,0.03
2.589,-0.02,0.01,0.04,0.05
2.599,-0.02,0.02,0.02,0.03
2.609,-0.01,0.00,0.02,0.02
2.619,-0.01,0.01,0.04,0.04
2.629,-0.01,0.01,0.04,0.04
2.639,-0.01,0.01,0.05,0.05
2.649,-0.01,0.01,0.03,0.04
2.659,-0.01,0.01,-0.01,0.01
2.669,-0.01,-0.00,-0.04,0.04
2.679,0.00,-0.02,-0.03,0.04
2.689,-0.00,0.00,-0.01,0.01
2.700,-0.01,0.02,0.01,0.03
2.710,-0.02,0.02,0.02,0.04
2.720,-0.01,0.02,0.01,0.03
2.730,-0.02,0.04,0.01,0.04
2.740,-0.00,0.02,0.01,0.02
2.750,-0.01,0.01,0.02,0.02
2.760,-0.02,0.00,0.00,0.02
2.770,-0.02,-0.00,-0.04,0.05
2.780,-0.03,0.01,-0.03,0.04
2.790,-0.03,0.03,0.01,0.05
2.800,-0.03,0.02,0.03,0.05
2.810,-0.02,0.02,0.04,0.05
2.820,-0.01,0.02,0.03,0.03
2.831,-0.01,0.01,0.00,0.02
2.841,-0.01,0.00,-0.00,0.02
2.851,-0.02,0.02,-0.00,0.03
2.861,-0.02,0.01,0.00,0.02
2.871,-0.06,0.02,-0.03,0.07
2.881,0.02,-0.03,-0.01,0.04
2.891,-0.01,-0.00,-0.03,0.03
2.901,-0.02,0.01,0.01,0.03
2.911,-0.03,0.04,0.02,0.05
2.921,-0.04,0.05,0.01,0.06
2.931,-0.03,0.02,0.01,0.04
2.941,-0.02,-0.01,0.01,0.03
2.951,-0.00,-0.01,0.03,0.03
2.962,0.00,-0.02,0.03,0.04
2.972,-0.01,0.00,0.04,0.04
2.982,-0.02,0.02,0.04,0.05
2.992,-0.03,0.04,0.04,0.06
3.002,-0.04,0.04,0.03,0.06
3.012,-0.03,0.02,0.01,0.04
3.022,-0.02,0.00,-0.03,0.04
3.032,-0.01,-0.01,-0.04,0.04
3.042,0.00,-0.01,-0.01,0.01
3.052,-0.01,0.00,0.01,0.01
3.062,0.00,0.00,-0.02,0.02
3.072,0.00,0.00,-0.01,0.01
3.082,-0.01,0.01,-0.01,0.02
3.093,-0.01,0.01,0.01,0.02
3.102,-0.02,0.02,0.04,0.05
3.113,-0.04,0.02,0.04,0.06
3.123,-0.03,0.01,0.03,0.04
3.133,-0.01,-0.01,0.01,0.02
3.143,-0.01,-0.00,0.03,0.03
3.153,-0.01,0.00,-0.00,0.01
3.163,-0.00,0.00,-0.04,0.04
3.173,0.00,-0.00,-0.03,0.03
3.183,-0.01,0.01,-0.01,0.02
3.193,-0.03,0.02,-0.00,0.04
3.203,-0.02,0.02,0.02,0.04
3.213,-0.02,0.02,0.05,0.05
3.223,-0.03,0.01,0.04,0.05
3.233,-0.02,0.00,0.01,0.02
3.244,-0.00,0.00,0.02,0.02
3.254,-0.02,0.02,0.01,0.03
3.264,-0.01,0.01,0.01,0.02
3.274,-0.01,0.02,0.00,0.02
3.284,-0.01,0.02,-0.02,0.02
3.294,-0.01,0.00,-0.04,0.04
3.304,-0.01,0.01,-0.02,0.03
3.314,-0.01,0.02,0.00,0.02
3.324,-0.01,0.01,0.01,0.02
3.334,-0.01,0.02,0.03,0.04
3.344,-0.01,0.02,0.09,0.10
3.354,-0.02,0.01,0.04,0.04
3.364,-0.02,0.00,-0.01,0.02
3.375,-0.02,0.01,-0.04,0.04
3.385,-0.02,0.01,-0.03,0.04
3.395,-0.02,0.01,-0.02,0.03
3.405,-0.02,0.02,0.01,0.03
3.415,-0.02,0.01,0.03,0.04
3.425,-0.03,0.03,0.04,0.06
3.435,-0.01,0.01,0.01,0.02
3.445,-0.01,0.01,-0.01,0.02
3.455,-0.02,0.01,-0.01,0.02
3.465,-0.01,0.01,0.01,0.02
3.475,-0.01,0.00,-0.00,0.01
3.485,-0.02,0.01,-0.00,0.03
3.495,-0.03,0.01,0.01,0.03
3.505,-0.01,0.01,0.04,0.04
3.516,-0.03,0.02,0.04,0.05
3.526,-0.01,0.02,0.04,0.05
3.536,-0.01,0.01,0.02,0.03
3.546,-0.01,0.01,0.01,0.01
3.556,-0.00,0.00,-0.01,0.01
3.566,-0.01,0.01,-0.02,0.02
3.576,-0.01,0.01,-0.00,0.01
3.586,-0.03,0.03,-0.00,0.04
3.596,-0.03,0.03,-0.00,0.04
3.606,-0.02,0.02,0.02,0.03
3.616,-0.01,0.01,0.03,0.04
3.626,-0.02,0.00,0.03,0.03
3.636,-0.00,-0.01,0.02,0.02
3.647,-0.02,0.00,-0.01,0.02
3.657,0.00,0.00,-0.00,0.01
3.667,-0.00,0.01,-0.01,0.01
3.677,-0.01,0.01,-0.01,0.02
3.687,-0.00,0.01,0.01,0.01
3.697,-0.01,0.02,0.00,0.03
3.707,-0.02,0.02,0.02,0.03
3.717,-0.02,0.01,0.04,0.05
3.727,-0.02,-0.00,0.04,0.04
3.737,-0.01,0.00,0.04,0.04
3.747,-0.01,0.02,0.04,0.04
3.757,-0.01,0.02,0.01,0.02
3.767,0.00,0.02,-0.01,0.03
3.778,0.00,0.02,-0.02,0.02
3.788,0.00,0.02,-0.01,0.02
3.798,-0.02,0.02,-0.02,0.04
3.808,-0.03,0.01,-0.02,0.03
3.818,-0.01,-0.00,-0.04,0.04
3.828,-0.02,0.01,-0.04,0.04
3.838,-0.02,0.00,0.01,0.02
3.848,-0.01,-0.00,0.03,0.03
3.858,-0.00,0.01,0.01,0.01
3.868,-0.01,0.01,0.04,0.05
3.878,-0.00,0.01,0.06,0.06
3.888,-0.01,0.01,0.03,0.03
3.898,-0.00,0.01,0.02,0.02
3.908,-0.02,0.03,0.01,0.04
3.919,-0.02,0.01,0.00,0.02
3.928,-0.01,0.01,-0.03,0.03
3.939,-0.01,0.00,-0.03,0.03
3.949,-0.01,0.01,-0.01,0.02
3.959,-0.01,0.02,-0.00,0.02
3.969,0.00,0.01,0.02,0.03
3.979,-0.01,0.01,0.02,0.03
3.989,-0.00,-0.01,0.04,0.04
3.999,0.00,-0.00,0.03,0.03
4.009,-0.01,-0.00,0.03,0.03
4.019,-0.01,-0.00,0.00,0.01
4.029,-0.02,0.00,-0.02,0.03
4.039,-0.03,0.02,-0.04,0.06
4.050,-0.03,0.03,-0.01,0.04
4.059,-0.01,0.03,0.01,0.03
4.070,-0.01,0.01,0.03,0.03
4.080,0.00,-0.00,0.03,0.03
4.090,0.01,-0.01,-0.00,0.02
4.100,-0.00,0.01,0.00,0.01
4.110,-0.03,0.02,0.01,0.03
4.120,-0.02,0.03,0.02,0.04
4.130,-0.02,0.02,0.02,0.04
4.140,-0.01,0.01,0.03,0.04
4.150,-0.01,0.02,0.00,0.02
4.160,-0.00,-0.00,-0.01,0.01
4.170,-0.00,0.01,-0.01,0.01
4.180,-0.02,0.02,-0.01,0.03
4.190,-0.00,0.01,0.02,0.02
4.201,0.00,-0.00,0.03,0.03
4.211,0.01,-0.01,-0.00,0.02
4.221,-0.00,-0.01,-0.02,0.02
4.231,0.00,0.01,0.00,0.01
4.241,-0.03,0.02,0.01,0.03
4.251,-0.03,0.03,0.02,0.05
4.261,-0.02,0.01,-0.00,0.02
4.271,-0.01,-0.00,-0.01,0.01
4.281,-0.02,0.01,0.02,0.03
4.291,-0.03,0.02,0.01,0.04
4.301,-0.02,0.01,0.01,0.02
4.311,0.00,0.00,0.02,0.02
4.321,0.01,-0.01,0.03,0.03
4.331,0.01,-0.01,0.02,0.02
4.342,0.00,0.01,-0.00,0.01
4.352,-0.02,0.02,-0.02,0.03
4.362,-0.02,0.02,-0.02,0.04
4.372,-0.02,0.01,0.00,0.02
4.382,-0.03,0.00,0.01,0.03
4.392,-0.02,-0.01,0.02,0.02
4.402,-0.01,-0.01,0.02,0.02
4.412,0.01,0.00,0.02,0.02
4.422,0.01,-0.01,0.03,0.03
4.432,0.01,-0.00,-0.00,0.01
4.442,0.02,-0.01,-0.02,0.03
4.453,-0.01,0.01,-0.03,0.03
4.463,-0.02,0.01,-0.04,0.05
4.473,-0.02,0.02,-0.04,0.05
4.483,-0.06,0.05,-0.01,0.08
4.493,-0.04,0.04,0.01,0.06
4.503,-0.03,0.05,0.06,0.09
4.513,-0.02,0.02,0.08,0.09
4.523,-0.02,0.01,0.04,0.05
4.533,0.00,0.00,0.03,0.03
4.543,0.02,-0.03,-0.02,0.04
4.553,0.01,-0.02,-0.02,0.03
4.563,-0.01,-0.01,-0.02,0.02
4.573,0.01,-0.02,0.02,0.03
4.583,-0.02,0.02,0.01,0.03
4.593,-0.02,0.01,0.04,0.05
4.604,-0.02,0.01,0.03,0.04
4.614,-0.02,0.01,0.02,0.02
4.624,-0.01,-0.00,0.01,0.01
4.634,-0.01,0.01,0.03,0.04
4.644,0.02,-0.01,-0.01,0.03
4.654,0.01,-0.00,-0.01,0.01
4.664,0.02,-0.01,-0.00,0.03
4.674,0.01,-0.01,0.00,0.01
4.684,0.01,-0.01,-0.04,0.04
4.694,-0.01,-0.01,-0.01,0.01
4.704,-0.02,0.01,0.01,0.02
4.714,-0.02,0.02,0.02,0.03
4.724,-0.01,0.01,0.01,0.02
4.734,-0.01,0.03,-0.01,0.03
4.745,-0.02,0.02,-0.01,0.03
4.755,-0.02,0.01,0.01,0.02
4.765,-0.01,-0.00,0.03,0.03
4.775,0.00,-0.01,0.04,0.04
4.785,0.00,-0.00,0.01,0.01
4.795,0.01,0.01,-0.00,0.01
4.805,-0.01,0.02,0.00,0.02
4.815,-0.02,0.03,-0.01,0.04
4.825,-0.02,0.03,-0.00,0.03
4.835,-0.01,0.01,0.01,0.02
4.845,-0.02,-0.00,-0.01,0.02
4.855,-0.01,-0.01,-0.01,0.01
4.865,-0.02,0.01,-0.01,0.02
4.876,-0.00,0.01,-0.00,0.01
4.886,-0.01,0.01,0.02,0.03
4.896,-0.01,0.01,0.04,0.04
4.906,-0.00,0.00,0.04,0.04
4.916,-0.02,-0.00,0.00,0.02
4.926,-0.01,0.00,0.00,0.02
4.936,-0.01,0.00,0.01,0.02
4.946,-0.03,0.00,0.01,0.03
4.956,-0.00,0.00,-0.00,0.01
4.966,-0.00,-0.01,-0.01,0.02
4.976,0.00,-0.00,0.00,0.01
4.986,0.00,0.01,0.01,0.02
4.996,0.01,0.01,0.02,0.02
5.006,-0.01,0.01,0.03,0.03
5.016,-0.02,0.01,0.02,0.03
5.027,-0.02,-0.00,0.03,0.04
5.037,-0.02,0.00,0.03,0.03
5.047,-0.03,0.02,0.03,0.04
5.057,-0.01,0.02,-0.02,0.03
5.067,0.00,0.00,-0.01,0.01
5.077,0.01,0.01,-0.03,0.03
5.087,0.01,-0.01,-0.01,0.01
5.097,-0.01,0.01,0.01,0.02
5.107,-0.02,0.01,0.02,0.03
5.117,-0.01,0.01,0.03,0.03
5.127,-0.02,0.00,0.03,0.04
5.138,-0.02,0.02,0.03,0.04
5.147,-0.01,0.02,0.03,0.04
5.158,-0.00,0.02,0.01,0.02
5.168,-0.02,0.01,-0.01,0.02
5.178,-0.00,-0.01,-0.03,0.03
5.188,-0.01,-0.01,-0.04,0.04
5.198,0.01,-0.01,-0.03,0.03
5.208,0.00,-0.01,0.02,0.02
5.218,-0.01,0.01,0.06,0.06
5.228,-0.02,0.02,0.05,0.06
5.238,-0.02,0.02,0.04,0.05
5.248,-0.01,0.02,0.03,0.03
5.258,-0.01,-0.00,-0.00,0.01
5.268,-0.00,-0.01,-0.03,0.04
5.278,0.01,-0.01,-0.01,0.02
5.289,-0.01,0.00,0.01,0.01
5.298,-0.02,0.01,0.02,0.03
5.309,-0.01,0.00,0.01,0.02
5.319,0.00,-0.00,0.02,0.02
5.329,-0.01,0.01,0.02,0.03
5.339,-0.01,0.02,0.01,0.03
5.349,-0.02,0.01,0.01,0.02
5.359,-0.02,0.01,0.00,0.02
5.369,-0.01,0.01,-0.01,0.02
5.379,-0.00,-0.00,0.00,0.00
5.389,-0.00,-0.01,0.04,0.04
5.399,-0.01,0.01,0.02,0.02
5.409,-0.00,0.00,-0.00,0.01
5.420,0.00,-0.00,0.02,0.02
5.430,-0.02,0.02,-0.02,0.04
5.440,-0.01,-0.01,-0.03,0.03
5.450,-0.00,-0.00,-0.02,0.02
5.460,-0.01,0.01,-0.01,0.02
5.470,-0.02,0.01,0.03,0.04
5.480,-0.01,0.01,0.03,0.03
5.490,-0.01,0.01,0.02,0.03
5.500,-0.01,0.01,0.02,0.02
5.510,-0.01,0.02,-0.02,0.03
5.520,-0.00,0.01,-0.02,0.02
5.530,-0.01,0.00,-0.01,0.01
5.540,-0.01,-0.00,-0.03,0.03
5.551,0.01,-0.02,0.04,0.04
5.561,-0.01,0.00,0.06,0.06
5.570,-0.03,0.02,0.05,0.06
5.581,-0.00,0.01,0.03,0.03
5.591,-0.01,0.00,0.02,0.03
5.601,-0.01,-0.01,-0.01,0.02
5.611,-0.01,-0.00,-0.05,0.05
5.621,-0.01,0.00,-0.03,0.03
5.631,-0.02,0.01,0.02,0.03
5.641,-0.03,0.02,0.03,0.04
5.651,-0.02,0.02,0.05,0.05
5.661,-0.00,0.01,0.05,0.05
5.671,-0.01,0.00,0.03,0.03
5.681,-0.01,-0.01,0.00,0.01
5.691,-0.01,-0.01,-0.01,0.02
5.701,-0.01,0.00,-0.02,0.02
5.712,-0.02,0.01,-0.03,0.04
5.722,-0.00,0.00,-0.00,0.00
5.732,0.00,-0.00,0.03,0.03
5.742,-0.01,0.01,0.03,0.03
5.752,-0.01,0.01,-0.01,0.02
5.762,-0.02,0.01,-0.01,0.02
5.772,-0.01,0.01,0.02,0.02
5.782,-0.02,0.01,0.03,0.03
5.792,-0.01,0.01,0.02,0.02
5.802,-0.02,0.02,-0.01,0.03
5.812,-0.02,0.01,-0.01,0.02
5.822,-0.01,0.00,0.02,0.02
5.832,-0.01,-0.00,-0.00,0.01
5.843,-0.01,-0.00,-0.02,0.02
5.853,-0.01,-0.00,0.02,0.02
5.863,-0.01,0.01,0.01,0.02
5.873,-0.00,0.00,-0.00,0.01
5.883,-0.00,0.01,0.00,0.01
5.893,-0.01,0.01,0.00,0.02
5.903,-0.01,0.01,0.00,0.01
5.913,-0.02,0.01,-0.00,0.02
5.923,-0.00,0.00,0.02,0.02
5.933,-0.00,-0.00,0.02,0.02
5.943,-0.01,0.01,0.01,0.02
5.953,-0.02,0.02,0.02,0.03
5.963,-0.02,0.01,0.00,0.02
5.974,-0.01,0.00,0.01,0.01
5.984,-0.00,-0.00,-0.01,0.01
5.994,0.01,0.00,-0.01,0.01
6.004,0.00,-0.00,0.00,0.01
6.014,-0.01,-0.01,0.01,0.02
6.024,-0.01,-0.00,0.01,0.02
6.034,-0.01,-0.00,0.01,0.01
6.044,-0.00,-0.01,0.02,0.02
6.054,-0.01,0.01,0.02,0.02
6.064,-0.00,0.01,0.02,0.02
6.074,-0.02,0.01,-0.01,0.03
6.084,0.00,-0.00,-0.00,0.00
6.094,-0.01,0.00,-0.01,0.01
6.105,-0.01,-0.01,0.01,0.02
6.114,-0.02,0.00,0.02,0.03
6.125,-0.02,0.01,0.01,0.03
6.135,0.00,0.00,-0.00,0.00
6.145,0.00,-0.00,0.01,0.01
6.155,0.01,-0.01,-0.00,0.02
6.165,-0.01,0.00,0.02,0.02
6.175,-0.01,0.01,-0.01,0.01
6.185,-0.02,0.01,0.03,0.04
6.195,-0.02,0.01,0.07,0.07
6.205,-0.01,0.02,0.05,0.05
6.215,-0.01,0.01,0.01,0.02
6.225,0.01,-0.00,0.01,0.01
6.235,0.01,-0.01,0.01,0.01
6.245,0.00,0.00,-0.00,0.00
6.256,-0.00,0.00,-0.01,0.01
6.266,-0.00,0.01,0.00,0.01
6.276,-0.00,0.01,-0.01,0.02
6.286,-0.01,0.01,-0.02,0.02
6.296,-0.01,0.00,-0.02,0.02
6.306,-0.02,-0.00,-0.02,0.02
6.316,-0.02,-0.00,0.01,0.02
6.326,-0.01,0.01,0.02,0.02
6.336,-0.01,0.01,-0.01,0.02
6.346,-0.01,-0.01,-0.01,0.01
6.356,-0.01,0.00,-0.01,0.01
6.366,0.00,0.00,0.00,0.00
6.376,-0.00,-0.00,-0.02,0.02
6.387,-0.01,0.01,-0.02,0.03
6.397,-0.01,-0.01,0.03,0.03
6.407,-0.02,-0.00,0.05,0.05
6.417,0.01,0.00,0.02,0.02
6.427,-0.01,0.00,0.01,0.01
6.437,-0.01,0.02,0.00,0.02
6.447,-0.01,0.01,0.01,0.02
6.457,-0.01,0.01,0.03,0.03
6.467,-0.01,0.02,0.02,0.03
6.477,-0.01,0.01,0.00,0.02
6.487,-0.01,-0.00,0.00,0.01
6.497,-0.01,0.01,0.01,0.02
6.507,-0.01,0.01,-0.00,0.01
6.518,-0.01,-0.00,0.01,0.02
6.527,-0.01,0.02,0.01,0.02
6.538,-0.00,0.01,0.01,0.01
6.548,-0.00,0.01,0.01,0.02
6.558,-0.01,-0.00,-0.01,0.02
6.568,-0.01,-0.02,-0.03,0.04
6.578,-0.01,-0.01,-0.01,0.02
6.588,-0.01,-0.00,0.05,0.05
6.598,-0.00,-0.00,0.02,0.02
6.608,-0.00,-0.00,0.02,0.03
6.618,-0.01,-0.00,-0.01,0.01
6.628,-0.01,0.01,0.02,0.02
6.638,-0.02,0.01,0.01,0.02
6.648,-0.01,0.01,0.02,0.03
6.659,-0.01,0.00,0.01,0.02
6.669,-0.00,-0.01,-0.00,0.01
6.679,0.01,-0.02,0.00,0.02
6.689,0.01,-0.00,0.01,0.01
6.699,0.01,-0.00,0.01,0.01
6.709,0.01,0.00,0.02,0.03
6.719,-0.00,0.01,0.02,0.02
6.729,-0.02,0.01,0.01,0.02
6.739,-0.01,0.00,-0.00,0.01
6.749,-0.01,-0.00,-0.00,0.01
6.759,-0.02,0.00,0.03,0.03
6.769,-0.02,0.02,0.03,0.04
6.779,-0.01,0.01,0.03,0.03
6.789,0.00,0.00,0.02,0.02
6.800,0.01,0.00,-0.00,0.01
6.810,0.00,0.00,0.01,0.01
6.820,-0.01,0.00,0.01,0.01
6.830,-0.01,0.01,-0.00,0.01
6.840,-0.00,-0.01,0.02,0.02
6.850,0.00,-0.01,0.02,0.02
6.860,-0.00,-0.01,0.02,0.02
6.870,-0.01,-0.00,0.00,0.01
6.880,-0.01,0.01,-0.01,0.02
6.890,-0.01,-0.00,0.01,0.01
6.900,-0.00,0.00,0.01,0.01
6.910,-0.01,-0.00,0.00,0.01
6.920,-0.01,-0.01,-0.01,0.01
6.930,-0.01,-0.00,0.01,0.01
6.940,-0.03,0.01,0.03,0.04
6.951,-0.03,0.03,0.03,0.05
6.961,-0.01,0.02,0.03,0.04
6.971,-0.00,0.01,0.03,0.03
6.981,-0.01,0.01,-0.02,0.02
6.991,-0.02,0.00,-0.01,0.02
7.001,0.03,-0.02,-0.02,0.04
7.011,0.00,-0.02,-0.02,0.03
7.021,-0.01,-0.01,-0.00,0.02
7.031,-0.00,-0.01,0.00,0.01
7.041,-0.01,0.00,-0.01,0.01
7.052,-0.01,-0.00,0.01,0.02
7.062,-0.01,0.01,0.03,0.03
7.072,-0.01,0.01,0.05,0.05
7.082,-0.02,0.02,0.03,0.04
7.092,-0.01,0.01,0.01,0.02
7.102,-0.01,0.00,-0.02,0.02
7.112,-0.00,-0.00,-0.03,0.03
7.122,-0.01,-0.01,-0.02,0.02
7.132,0.01,-0.01,-0.00,0.02
7.142,-0.01,0.01,0.01,0.02
7.152,-0.03,0.01,0.02,0.03
7.162,-0.00,0.00,0.00,0.01
7.172,0.01,-0.00,-0.00,0.01
7.182,-0.01,0.01,0.02,0.02
7.192,-0.02,-0.00,0.01,0.03
7.203,-0.02,-0.00,0.01,0.02
7.213,-0.00,-0.01,0.02,0.02
7.223,-0.01,0.00,0.02,0.02
7.233,-0.00,-0.00,0.01,0.01
7.243,0.00,-0.01,0.02,0.02
7.253,-0.01,-0.00,0.02,0.02
7.263,-0.01,0.01,0.00,0.01
7.273,0.00,-0.01,0.00,0.01
7.283,-0.01,0.01,-0.00,0.01
7.293,-0.00,0.01,-0.02,0.02
7.303,-0.00,0.00,-0.02,0.02
7.313,-0.02,0.01,-0.00,0.02
7.323,-0.02,0.02,0.04,0.05
7.333,-0.02,0.01,0.03,0.04
7.344,-0.02,-0.01,0.05,0.05
7.354,-0.01,-0.00,0.02,0.02
7.364,-0.00,-0.02,-0.00,0.02
7.374,0.00,-0.02,-0.04,0.04
7.384,-0.00,-0.02,-0.05,0.05
7.394,-0.00,0.01,0.00,0.01
7.404,-0.01,0.02,0.02,0.03
7.414,-0.01,0.01,0.03,0.03
7.424,-0.01,0.02,0.02,0.03
7.434,-0.02,0.02,0.02,0.03
7.444,-0.02,-0.01,0.02,0.03
7.454,-0.01,-0.02,0.00,0.03
7.465,-0.01,-0.02,-0.02,0.03
7.475,-0.00,-0.01,-0.02,0.03
7.485,-0.00,0.01,-0.02,0.02
7.495,-0.00,0.02,0.01,0.02
7.505,-0.00,0.02,0.02,0.03
7.515,-0.01,0.01,0.02,0.02
7.525,-0.01,-0.01,0.03,0.03
7.535,-0.02,0.00,0.02,0.03
7.545,-0.02,0.00,0.02,0.03
7.555,-0.02,-0.00,0.00,0.02
7.565,0.00,-0.01,-0.03,0.03
7.575,0.00,-0.00,-0.03,0.03
7.585,-0.01,0.00,-0.02,0.02
7.595,-0.00,-0.00,0.01,0.01
7.606,-0.01,-0.01,0.02,0.03
7.616,-0.01,-0.02,0.00,0.02
7.626,-0.01,-0.00,-0.01,0.01
7.636,-0.02,0.01,0.01,0.02
7.646,-0.03,0.03,0.02,0.05
7.656,-0.01,0.02,0.02,0.03
7.666,-0.00,0.01,0.01,0.01
7.676,0.01,-0.02,-0.01,0.02
7.686,0.01,-0.02,0.01,0.03
7.696,-0.02,-0.02,0.00,0.02
7.706,-0.02,-0.01,0.00,0.03
7.716,-0.02,-0.00,0.01,0.02
7.726,-0.02,0.02,0.01,0.03
7.736,-0.02,0.01,0.04,0.05
7.746,-0.00,0.00,0.05,0.05
7.757,-0.00,0.01,0.04,0.04
7.767,0.00,-0.00,0.02,0.02
7.777,0.01,-0.00,0.01,0.01
7.787,0.00,-0.00,0.00,0.01
7.797,-0.00,0.01,-0.00,0.01
7.807,-0.00,-0.00,-0.01,0.01
7.817,-0.00,0.01,-0.02,0.02
7.827,-0.00,0.00,-0.02,0.02
7.837,-0.01,0.00,-0.02,0.02
7.847,-0.02,0.00,0.01,0.02
7.857,-0.01,0.00,0.05,0.05
7.867,-0.00,0.00,0.07,0.07
7.878,-0.00,0.02,0.04,0.04
7.888,0.00,-0.00,0.02,0.02
7.898,0.00,0.02,0.00,0.02
7.908,0.02,0.01,0.00,0.02
7.918,0.01,0.00,-0.05,0.05
7.928,0.00,-0.00,-0.04,0.04
7.938,-0.01,0.02,-0.01,0.03
7.948,-0.03,0.02,0.01,0.04
7.958,-0.02,0.01,0.06,0.06
7.968,-0.02,0.02,0.03,0.05
7.978,-0.00,0.00,0.04,0.04
7.988,0.00,-0.01,0.03,0.03
7.998,0.01,-0.01,0.01,0.01
8.008,0.01,-0.01,0.02,0.02
8.018,0.00,-0.00,0.02,0.02
8.028,-0.00,0.00,0.01,0.01
8.039,-0.00,-0.01,-0.00,0.01
8.049,-0.00,-0.00,-0.02,0.02
8.059,-0.00,-0.01,0.01,0.02
8.069,-0.00,-0.00,-0.00,0.00
8.079,-0.01,-0.00,-0.01,0.01
8.089,-0.01,0.00,0.00,0.01
8.099,-0.01,0.01,-0.00,0.01
8.109,-0.02,0.01,0.02,0.03
8.119,-0.01,0.01,0.03,0.04
8.129,-0.02,0.03,0.02,0.04
8.139,-0.01,0.01,0.01,0.02
8.150,-0.00,0.01,0.02,0.02
8.159,-0.00,0.00,0.01,0.01
8.169,-0.01,0.00,-0.01,0.01
8.180,-0.01,0.00,-0.01,0.02
8.190,-0.02,0.01,-0.01,0.02
8.200,-0.01,0.01,-0.01,0.02
8.210,-0.01,-0.00,-0.02,0.03
8.220,0.01,0.00,-0.02,0.02
8.230,-0.00,0.02,0.02,0.03
8.240,-0.00,0.00,0.04,0.04
8.250,-0.01,0.01,0.04,0.04
8.260,-0.03,0.02,0.02,0.04
8.270,-0.02,0.01,0.02,0.03
8.280,-0.01,-0.01,0.00,0.01
8.290,0.00,-0.01,-0.01,0.01
8.301,-0.00,-0.02,-0.01,0.02
8.310,-0.00,-0.00,-0.03,0.03
8.321,-0.00,0.01,-0.00,0.01
8.331,-0.01,0.01,-0.00,0.01
8.341,-0.02,0.01,-0.01,0.02
8.351,0.00,0.00,0.07,0.07
8.361,-0.01,0.01,0.07,0.07
8.371,-0.01,0.01,0.04,0.04
8.381,-0.00,0.00,0.01,0.01
8.391,0.01,-0.01,-0.00,0.02
8.401,0.00,-0.00,0.02,0.02
8.411,-0.02,0.01,0.01,0.02
8.421,-0.01,0.00,0.01,0.02
8.432,-0.01,-0.00,-0.03,0.04
8.441,-0.00,-0.01,-0.06,0.06
8.452,0.00,-0.01,-0.03,0.03
8.462,0.00,0.00,-0.01,0.01
8.472,-0.01,0.01,0.04,0.04
8.482,-0.00,0.02,0.07,0.07
8.492,-0.01,0.01,0.04,0.04
8.502,-0.01,0.01,0.02,0.02
8.512,-0.01,-0.00,-0.00,0.01
8.522,-0.01,-0.02,-0.01,0.02
8.532,-0.01,-0.01,-0.02,0.02
8.542,-0.01,-0.01,0.00,0.01
8.552,0.00,0.00,0.00,0.00
8.562,0.01,0.00,0.02,0.02
8.573,-0.00,0.01,0.02,0.02
8.582,-0.00,0.01,0.01,0.01
8.593,-0.01,0.01,0.02,0.02
8.603,-0.01,0.01,-0.02,0.03
8.613,-0.02,0.01,-0.02,0.03
8.623,-0.01,0.01,-0.02,0.02
8.633,-0.01,-0.00,0.01,0.01
8.643,0.01,-0.01,0.05,0.05
8.653,0.00,0.00,0.05,0.05
8.663,-0.00,-0.01,0.02,0.02
8.673,0.00,-0.02,0.00,0.02
8.683,-0.01,0.01,-0.03,0.03
8.693,-0.02,0.01,-0.04,0.05
8.703,-0.02,0.01,-0.02,0.03
8.713,-0.02,0.00,-0.00,0.02
8.724,-0.01,-0.01,0.03,0.04
8.734,-0.00,-0.01,0.04,0.04
8.744,-0.00,-0.01,0.03,0.03
8.754,0.00,0.00,0.01,0.01
8.764,-0.00,0.01,-0.00,0.01
8.774,-0.02,0.02,0.01,0.03
8.784,-0.02,0.02,0.00,0.03
8.794,-0.01,0.01,-0.00,0.02
8.804,-0.02,-0.01,-0.02,0.03
8.814,-0.02,-0.00,-0.03,0.03
8.824,-0.01,-0.01,-0.00,0.01
8.834,-0.01,0.00,0.03,0.03
8.845,-0.01,0.00,0.05,0.05
8.855,-0.02,0.01,0.02,0.03
8.865,-0.00,0.00,0.01,0.01
8.875,-0.00,-0.00,-0.00,0.00
8.885,0.00,-0.01,0.00,0.01
8.895,-0.00,-0.00,-0.02,0.02
8.905,-0.01,-0.01,-0.00,0.02
8.915,-0.02,0.01,0.02,0.03
8.925,-0.03,0.02,0.02,0.04
8.935,-0.03,0.02,0.04,0.05
8.945,-0.02,0.00,0.03,0.04
8.955,0.00,-0.01,0.00,0.01
8.965,0.00,-0.01,-0.01,0.02
8.975,0.03,-0.02,-0.04,0.05
8.986,-0.00,-0.01,-0.02,0.03
8.996,-0.00,-0.00,-0.02,0.02
9.006,-0.01,-0.00,-0.01,0.02
9.016,-0.01,0.01,0.03,0.03
9.026,-0.03,0.01,0.01,0.03
9.036,-0.03,0.01,0.01,0.03
9.046,-0.03,0.01,0.00,0.03
9.056,-0.02,0.01,0.00,0.03
9.066,-0.02,0.02,0.00,0.02
9.076,-0.02,0.01,0.01,0.02
9.086,0.00,-0.01,0.04,0.04
9.096,-0.00,-0.00,0.03,0.03
9.106,0.00,-0.01,0.01,0.01
9.116,-0.00,0.00,0.02,0.02
9.126,-0.03,0.01,0.02,0.03
9.137,-0.02,0.00,0.01,0.02
9.147,-0.01,0.00,-0.01,0.02
9.157,0.00,0.00,-0.01,0.01
9.167,-0.01,0.02,-0.01,0.02
9.177,-0.01,0.01,-0.00,0.01
9.187,-0.02,0.02,0.01,0.03
9.197,-0.00,-0.01,0.01,0.01
9.207,0.00,-0.02,0.01,0.02
9.217,0.01,-0.03,0.01,0.04
9.227,0.00,-0.03,0.03,0.04
9.237,-0.00,-0.00,0.01,0.01
9.247,-0.01,0.01,-0.01,0.02
9.257,-0.01,0.01,-0.01,0.02
9.267,-0.02,0.02,-0.01,0.03
9.278,-0.02,0.01,-0.01,0.02
9.288,-0.02,-0.00,0.02,0.03
9.298,-0.01,-0.00,0.02,0.03
9.308,-0.01,-0.00,0.04,0.04
9.318,-0.01,-0.00,0.01,0.01
9.328,0.00,0.00,-0.00,0.00
9.338,0.01,-0.00,0.02,0.02
9.348,-0.00,0.00,0.02,0.02
9.358,-0.00,0.01,-0.01,0.01
9.368,-0.01,0.01,0.02,0.02
9.378,-0.02,0.02,-0.00,0.02
9.388,-0.02,0.01,-0.01,0.02
9.398,-0.03,0.01,-0.01,0.03
9.409,-0.00,-0.01,0.01,0.01
9.419,-0.00,-0.00,0.03,0.03
9.429,-0.01,-0.01,0.03,0.03
9.439,0.01,-0.02,0.03,0.04
9.449,0.00,-0.00,0.02,0.02
9.459,-0.00,-0.00,0.02,0.02
9.469,-0.00,-0.00,0.01,0.01
9.479,-0.01,-0.00,-0.02,0.03
9.489,-0.02,0.01,-0.03,0.04
9.499,-0.02,0.01,-0.01,0.03
9.509,-0.02,0.02,0.00,0.03
9.519,-0.01,0.00,-0.01,0.01
9.529,-0.00,0.00,-0.03,0.03
9.539,0.00,0.00,-0.01,0.01
9.550,-0.00,-0.00,0.01,0.01
9.560,-0.01,-0.01,0.04,0.04
9.570,-0.02,-0.00,0.05,0.06
9.580,-0.03,0.01,0.03,0.04
9.590,-0.02,0.00,0.01,0.03
9.600,-0.01,-0.00,-0.01,0.02
9.610,-0.02,0.01,-0.02,0.03
9.620,-0.00,0.00,-0.04,0.04
9.630,0.01,-0.01,0.01,0.01
9.640,-0.00,-0.00,0.04,0.04
9.650,-0.01,0.01,0.02,0.02
9.661,-0.00,-0.00,0.00,0.01
9.670,-0.01,-0.00,-0.03,0.03
9.681,-0.02,0.00,0.01,0.02
9.691,-0.03,0.01,0.05,0.06
9.701,-0.02,0.02,0.04,0.05
9.711,-0.00,-0.00,0.06,0.06
9.721,-0.01,-0.00,0.01,0.01
9.731,0.00,-0.01,-0.01,0.01
9.741,0.01,-0.02,0.00,0.02
9.751,0.01,0.00,-0.02,0.03
9.761,-0.01,0.00,-0.04,0.04
9.771,-0.00,0.00,-0.05,0.05
9.781,-0.02,0.01,-0.02,0.03
9.791,-0.02,0.00,0.01,0.02
9.801,-0.01,-0.01,0.04,0.04
9.812,-0.03,0.02,0.06,0.07
9.822,-0.02,0.03,0.05,0.06
9.832,-0.02,0.02,0.01,0.03
9.842,0.01,-0.00,-0.01,0.01
9.852,0.01,-0.02,-0.01,0.03
9.862,0.01,-0.03,-0.03,0.05
9.872,0.00,-0.03,-0.04,0.05
9.882,0.01,-0.01,0.01,0.01
9.892,-0.01,0.02,0.04,0.04
9.902,-0.01,0.02,0.05,0.06
9.912,-0.03,0.01,0.04,0.05
9.922,-0.01,-0.00,0.03,0.03
9.932,-0.01,0.00,-0.02,0.02
9.942,-0.01,0.00,-0.04,0.04
9.952,-0.01,0.01,-0.03,0.03
9.963,-0.01,0.00,0.01,0.02
9.973,-0.00,0.00,0.03,0.03
9.983,0.00,0.01,0.01,0.02
9.993,-0.01,0.00,0.00,0.01
10.003,-0.01,0.00,-0.00,0.01
10.013,-0.00,0.01,0.01,0.02
10.023,-0.01,-0.00,0.01,0.02
10.033,-0.01,-0.01,-0.00,0.02
10.043,-0.03,0.00,0.01,0.03
10.053,-0.02,0.01,0.02,0.03
10.063,-0.00,0.00,-0.00,0.00
10.074,-0.01,0.01,0.01,0.02
10.084,0.00,-0.00,0.03,0.03
10.094,-0.02,0.01,0.02,0.02
10.104,-0.00,0.00,0.00,0.01
10.114,-0.00,-0.00,-0.00,0.00
10.124,-0.01,-0.01,-0.02,0.02
10.134,0.00,-0.03,-0.02,0.03
10.144,-0.01,-0.00,-0.01,0.01
10.154,-0.02,0.01,0.00,0.02
10.164,-0.02,0.01,0.03,0.04
10.174,-0.01,0.03,0.03,0.04
10.184,-0.01,0.02,0.03,0.04
10.194,-0.02,0.01,0.01,0.03
10.204,-0.02,-0.00,-0.03,0.03
10.214,-0.01,-0.02,-0.03,0.04
10.224,-0.01,-0.03,-0.06,0.07
10.235,0.00,-0.03,-0.08,0.08
10.245,-0.01,-0.01,-0.04,0.04
10.255,-0.02,0.03,-0.01,0.04
10.265,-0.05,0.04,0.02,0.07
10.275,0.00,0.02,0.05,0.06
10.285,-0.09,0.07,0.16,0.20
10.295,-0.06,0.04,0.17,0.19
10.305,0.01,-0.02,0.07,0.07
10.315,0.02,-0.06,-0.03,0.07
10.325,0.00,-0.05,-0.07,0.09
10.335,0.01,-0.03,-0.03,0.05
10.345,0.02,-0.02,0.03,0.04
10.355,0.01,-0.01,0.04,0.04
10.366,-0.01,0.01,0.00,0.01
10.376,-0.01,0.02,0.00,0.03
10.386,-0.03,0.04,0.01,0.05
10.396,-0.02,0.04,0.02,0.05
10.406,-0.02,0.03,0.01,0.03
10.416,0.01,-0.01,-0.02,0.02
10.426,-0.02,-0.01,0.06,0.06
10.436,0.00,0.01,0.05,0.05
