time,ax,ay,az,atotal
0.003368,0.3449,0.0005,-0.6496,0.735
0.020648,-0.14,-0.0008,0.2803,0.313
0.021287,-0.409,-0.0074,0.9536,1.038
0.038456,-0.5328,-0.0057,1.2176,1.329
0.039324,-0.3872,-0.0227,0.7391,0.835
0.050441,-0.0926,-0.0073,0.1497,0.176
0.064183,0.1415,0.0115,-0.2075,0.251
0.068638,0.2335,0.0216,-0.3413,0.414
0.079597,0.0593,0.0045,-0.0865,0.105
0.094709,-0.1404,-0.0041,0.2039,0.248
0.099104,-0.3702,0.0163,0.5484,0.662
0.1087,-0.7198,0.0778,1.1127,1.327
0.118433,-1.1178,0.1591,1.8014,2.126
0.128542,-1.2059,0.1784,2.067,2.4
0.14112,-0.9923,0.1477,1.7243,1.995
0.148459,-0.471,0.0402,0.755,0.891
0.158714,0.2774,0.0098,-0.3978,0.485
0.168738,1.0674,0.0173,-1.4049,1.764
0.179728,0.9362,-0.002,-1.2123,1.532
0.19038,0.5591,-0.0014,-0.7412,0.928
0.198715,0.1491,-0.003,-0.2123,0.259
0.208798,-0.2138,0.0119,0.3213,0.386
0.218998,-0.3739,0.0289,0.5645,0.678
0.229579,-0.4246,0.0992,0.575,0.722
0.2498,-0.3753,0.0402,0.1065,0.392
0.250791,-0.1253,-0.1178,-0.6933,0.714
0.265833,0.2834,-0.1528,-1.2247,1.266
0.268956,0.3268,-0.1194,-1.4049,1.447
0.281911,0.1703,-0.13,-1.3849,1.401
0.294464,0.0837,-0.0973,-1.2115,1.218
0.299008,0.0447,-0.0383,-1.0903,1.092
0.309319,-0.0044,-0.0615,-1.284,1.286
0.319162,-0.0146,-0.0637,-1.3975,1.399
0.337088,0.0261,0.0306,-1.0684,1.069
0.364502,-0.0318,0.0956,-0.7448,0.752
0.365596,-0.1146,0.0671,-0.6002,0.615
0.366181,-0.1897,0.0404,-0.4668,0.505
0.380656,-0.377,0.0308,-0.2545,0.456
0.382059,-0.6439,0.028,0.341,0.729
0.388975,-0.8673,-0.0349,1.1814,1.466
0.398909,-0.9289,-0.3829,1.7003,1.975
0.408979,-0.9249,-0.4469,1.4286,1.76
0.422775,-1.1433,-0.0988,1.1834,1.648
0.429225,-1.4035,-0.0324,1.2636,1.889
0.446633,-1.7187,-0.1798,1.6641,2.399
0.448857,-2.0161,-0.4507,1.9997,2.875
0.458836,-2.3234,-0.7071,2.5279,3.505
0.471861,-2.4696,-0.8447,3.3448,4.243
0.479196,-2.4573,-0.7314,4.3723,5.069
0.489046,-2.4477,-0.3693,5.2285,5.785
0.498772,-2.3231,0.1775,5.4346,5.913
0.509179,-1.8601,0.601,4.4493,4.86
0.526316,-1.0072,0.5671,2.8403,3.066
0.529109,-0.0887,0.4347,1.1014,1.187
0.563139,0.5488,0.4133,-0.5731,0.895
0.565006,0.8681,0.4691,-1.8499,2.097
0.565833,0.9298,0.5227,-2.5323,2.748
0.577547,0.7315,0.4405,-2.5425,2.682
0.579488,0.1379,0.2528,-1.7374,1.761
0.596118,-0.5874,0.053,-0.8933,1.07
0.599577,-1.154,-0.1815,0.0892,1.172
0.613849,-1.5035,-0.5063,0.9807,1.865
0.62575,-1.641,-0.9423,1.9026,2.683
0.629348,-1.5722,-1.4002,2.6648,3.396
0.668288,-0.8934,-2.0353,2.8174,3.589
0.670657,-0.3727,-2.1503,2.0932,3.024
0.672076,0.1002,-2.0834,0.9402,2.288
0.673952,0.475,-1.8891,-0.2061,1.959
0.679105,0.7523,-1.6265,-1.1166,2.111
0.689,0.9501,-1.3629,-1.7989,2.449
0.699404,1.0636,-1.2388,-2.2669,2.794
0.709557,1.1649,-1.1896,-2.6036,3.09
0.725376,1.2806,-1.0725,-2.7287,3.199
0.729308,1.2976,-0.855,-2.633,3.057
0.759662,1.1764,-0.7095,-2.6357,2.972
0.76191,1.0214,-0.7365,-2.8258,3.094
0.763336,0.9675,-0.8952,-3.0609,3.333
0.779211,1.0507,-1.07,-3.1743,3.511
0.781849,1.2156,-1.2275,-3.2254,3.659
0.798364,1.3166,-1.3864,-3.2464,3.768
0.80059,1.3221,-1.5804,-3.2204,3.823
0.809274,1.2813,-1.7465,-3.0634,3.752
0.819973,1.2333,-1.8482,-2.6704,3.474
0.829427,1.1582,-1.9527,-2.1918,3.156
0.84075,1.033,-2.1228,-1.8582,3.004
0.879005,0.9073,-2.3387,-1.6699,3.013
0.882584,0.8682,-2.4803,-1.5281,3.04
0.884362,1.0007,-2.4019,-0.9084,2.756
0.88577,0.9325,-2.3116,-0.7847,2.613
0.889074,0.7819,-2.2908,-0.8912,2.579
0.900231,0.588,-2.271,-1.0281,2.561
0.909077,0.3735,-2.1646,-1.08,2.448
0.919467,0.0134,-2.0666,-0.7531,2.2
0.929643,-0.469,-2.0193,-0.0972,2.075
0.939242,-0.9294,-2.0349,0.6923,2.342
0.979461,-1.2662,-2.0569,1.3429,2.764
0.982029,-1.435,-1.9769,1.824,3.049
0.983546,-1.4273,-1.8403,1.9415,3.032
0.985322,-1.3104,-1.6346,1.2148,2.422
0.989051,-1.4383,-1.7447,-0.025,2.261
0.999415,-1.5403,-2.5025,-0.3336,2.957
1.009237,-1.399,-3.3492,0.3348,3.645
1.02188,-1.397,-3.596,1.778,4.248
1.06579,-1.8682,-3.2941,3.4511,5.124
1.068511,-2.4241,-2.788,4.4863,5.812
1.072355,-2.6433,-2.185,4.6852,5.806
1.074732,-2.3317,-1.6253,4.0804,4.973
1.076881,-1.7899,-1.2838,2.8224,3.58
1.079801,-1.4705,-1.1537,1.5468,2.426
1.089144,-1.3833,-1.3394,0.9643,2.153
1.09898,-1.3619,-1.7829,1.3533,2.62
1.108987,-1.4091,-2.3511,2.7705,3.897
1.120327,-1.2951,-2.5492,3.1666,4.267
1.157315,-0.9552,-2.5639,3.1964,4.208
1.160523,-0.527,-2.5815,2.6829,3.76
1.16267,-0.0979,-2.7146,1.8261,3.273
1.164575,0.2449,-2.8182,0.8724,2.96
1.176798,0.4763,-2.9455,-0.133,2.987
1.181013,0.67,-2.9588,-0.9881,3.191
1.189124,0.8013,-2.8041,-1.6133,3.333
1.199086,0.8793,-2.5588,-1.9479,3.334
1.209173,0.8235,-2.1998,-2.0706,3.131
1.219988,0.756,-1.8698,-2.064,2.886
1.261255,0.6587,-1.5751,-2.1256,2.726
1.263702,0.5835,-1.311,-2.3061,2.716
1.265135,0.5305,-1.1347,-2.5663,2.856
1.26646,0.5791,-1.0296,-2.7413,2.985
1.269338,0.6911,-0.9703,-2.9358,3.168
1.279201,0.8934,-0.8742,-3.0557,3.302
1.28925,1.0556,-0.7257,-3.1688,3.418
1.299114,1.1618,-0.6493,-3.2769,3.537
1.309043,1.1916,-0.6887,-3.4399,3.705
1.319382,1.2277,-0.7649,-3.6159,3.895
1.358322,1.2054,-0.7727,-3.5505,3.828
1.360728,0.6294,-0.7794,-2.8683,3.038
1.362701,0.2992,-0.8522,-2.1908,2.37
1.364015,0.0362,-0.9215,-1.3795,1.659
1.369037,-0.2135,-0.9292,-0.6079,1.131
1.379258,-0.3394,-1.0079,-0.0465,1.065
1.388988,-0.2738,-1.1024,0.1576,1.147
1.399163,-0.0354,-1.1777,0.1742,1.191
1.416895,0.2066,-1.3202,-0.0252,1.337
1.42006,0.3383,-1.5278,-0.4098,1.618
1.456382,0.4344,-1.7939,-0.6333,1.951
1.460087,0.5156,-2.0572,-0.6095,2.207
1.462386,0.5341,-2.2824,-0.4046,2.379
1.46447,0.5254,-2.5496,-0.0332,2.603
1.468913,0.6477,-2.768,0.5495,2.895
1.479295,0.6726,-2.9063,1.1146,3.185
1.488753,0.5907,-3.0473,1.3639,3.39
1.498841,0.3286,-3.1184,1.1078,3.326
1.51458,-0.6295,-3.1685,0.3911,3.254
1.519329,-2.291,-3.5517,0.469,4.252
1.547617,-3.6403,-3.9366,1.8453,5.67
1.550362,-4.537,-3.9924,4.1791,7.348
1.552231,-5.0888,-3.9106,6.6589,9.248
1.567123,-4.7592,-3.6404,8.5702,10.457
1.569731,-3.4563,-3.1342,7.596,8.915
1.584137,-0.065,-2.2778,4.9615,5.46
1.589286,0.7892,-1.9232,2.3712,3.153
1.599297,0.9322,-1.5139,0.0252,1.778
1.613021,0.5701,-1.1697,-1.6354,2.09
1.620191,0.1578,-0.9953,-2.5037,2.699
1.646468,-0.0491,-1.0321,-2.6984,2.889
1.649188,-0.211,-1.1691,-2.3376,2.622
1.650849,-0.4357,-1.2543,-1.739,2.188
1.665743,-0.4775,-1.2547,-1.2987,1.868
1.668774,-0.1782,-1.3341,-0.9271,1.634
1.685425,0.391,-1.3656,-0.8695,1.665
1.689524,1.0241,-1.1959,-1.1816,1.969
1.705526,1.5531,-0.8733,-1.6569,2.433
1.709141,1.9282,-0.4806,-2.0794,2.876
1.719216,2.2044,-0.1301,-2.5131,3.345
1.729522,2.3118,0.1495,-2.8998,3.712
1.747885,2.3951,0.3917,-3.1517,3.978
1.753055,2.5435,0.5477,-3.1848,4.112
1.799639,2.5706,0.5766,-2.9135,3.928
1.802442,2.5642,0.5068,-2.3824,3.537
1.803888,2.504,0.4826,-1.6557,3.04
1.80561,2.2778,0.5257,-0.7302,2.449
1.807453,1.9443,0.5569,0.1805,2.031
1.808978,1.6008,0.8446,1.283,2.219
1.819486,1.5081,1.0355,1.5034,2.368
1.834739,1.4452,1.1927,1.6393,2.49
1.87502,1.3512,1.4362,1.7096,2.61
1.877177,1.306,1.659,1.6541,2.682
1.878378,1.2089,1.7256,1.4596,2.563
1.879758,1.1341,1.769,1.2465,2.443
1.881792,1.1375,1.9606,1.1481,2.541
1.903497,1.0309,2.1938,1.0343,2.635
1.905079,0.7531,2.3133,0.7421,2.544
1.923114,0.437,2.2948,0.5505,2.4
1.924957,0.091,2.1627,0.6596,2.263
1.94094,-0.1102,1.995,1.0204,2.244
1.943319,-0.1855,1.7748,1.3832,2.258
1.985098,-0.2404,1.4802,1.5977,2.191
1.987625,-0.3161,1.2691,1.9953,2.386
1.989288,-0.3602,1.0476,2.5919,2.819
1.992398,-0.3036,0.8756,2.8866,3.032
1.99388,-0.1272,0.7256,2.6905,2.79
2.003016,0.1128,0.5266,2.2789,2.342
2.023835,0.3061,0.5887,1.7313,1.854
2.025794,0.2004,0.8954,1.1364,1.461
2.037401,-0.1101,1.087,0.8375,1.377
2.078952,-0.388,1.0621,1.0451,1.54
2.080661,-0.3182,1.1755,1.4422,1.888
2.081683,-0.218,1.4265,1.9426,2.42
2.083419,0.0205,1.679,2.395,2.925
2.084943,0.3129,1.8944,2.3717,3.052
2.091937,0.6068,2.0443,1.7727,2.773
2.099602,0.7977,2.0477,0.7264,2.315
2.109126,0.9125,1.8993,-0.3781,2.141
2.125655,0.9946,1.6796,-1.2768,2.332
2.132577,0.9549,1.4703,-1.971,2.638
2.166476,0.6697,1.2748,-2.4135,2.81
2.169375,0.1808,1.0772,-2.1558,2.417
2.170908,-0.447,1.0741,-1.234,1.696
2.171811,-0.9554,1.2407,-0.147,1.573
2.179309,-1.3655,1.2508,0.9283,2.071
2.189435,-1.6524,1.1934,1.7819,2.707
2.198886,-1.8521,1.1107,2.3264,3.174
2.208873,-1.8532,0.9869,2.5051,3.269
2.223943,-1.7406,0.8359,2.1569,2.895
2.230006,-1.5118,0.6013,1.3487,2.113
2.255487,-1.1336,0.3923,0.4355,1.276
2.256917,-0.7745,0.2163,-0.2528,0.843
2.259158,-0.5626,0.1841,-0.5801,0.829
2.274662,-0.4207,0.1826,-0.5547,0.72
2.2791,-0.458,0.1454,-0.7621,0.901
2.289883,-0.383,0.2901,-0.897,1.018
2.299429,-0.3144,0.2883,-1.2643,1.334
2.308931,-0.1811,0.0666,-1.7114,1.722
2.322518,-0.125,-0.1859,-1.8936,1.907
2.329463,-0.1377,-0.396,-1.8253,1.873
2.356315,-0.1285,-0.5085,-1.565,1.651
2.358416,-0.148,-0.3335,-1.0454,1.107
2.359975,-0.1886,0.0319,-0.5296,0.563
2.371369,-0.1948,0.4181,-0.0722,0.467
2.37882,-0.1858,0.6709,0.1099,0.705
2.389532,-0.0122,0.8927,0.0636,0.895
2.399695,0.163,1.0741,-0.2658,1.118
2.409297,0.3981,1.1615,-0.9687,1.564
2.423499,0.6183,1.1197,-1.8398,2.241
2.430327,0.875,0.9412,-2.6854,2.977
2.459172,0.9822,0.6965,-3.3835,3.591
2.462283,0.9102,0.4582,-3.8785,4.01
2.464569,0.6565,0.1896,-3.9769,4.035
2.469138,0.3729,-0.1104,-3.6459,3.667
2.47896,0.149,-0.3359,-2.8274,2.851
2.489141,-0.1929,-0.401,-1.5679,1.63
2.499926,-0.7836,-0.2973,-0.1579,0.853
2.509054,-2.0161,-0.2339,1.9562,2.819
2.519207,-2.1944,-0.2868,2.6301,3.437
2.52895,-2.2589,-0.2836,2.8441,3.643
2.540746,-2.287,-0.2881,2.7122,3.559
2.574505,-2.2752,-0.0895,2.1138,3.107
2.576725,-2.2323,0.3383,1.5349,2.73
2.578533,-2.2505,0.9368,1.2357,2.733
2.580288,-2.7906,1.5332,1.098,3.368
2.589581,-3.6125,1.9015,1.7094,4.426
2.604149,-4.0215,2.1872,2.6753,5.302
2.609231,-4.0563,2.2371,3.6704,5.91
2.618882,-3.6504,1.8946,4.569,6.147
2.635743,-2.5776,1.2411,4.8809,5.658
2.64088,-1.1815,0.5787,4.5939,4.779
2.668704,-0.1572,0.1982,3.8664,3.875
2.67144,0.3203,0.1158,2.6875,2.709
2.673027,0.3248,0.3004,1.4773,1.542
2.678871,0.1313,0.4539,0.3094,0.565
2.6892,-0.0624,0.393,-0.5993,0.719
2.698961,-0.0848,0.1091,-0.9225,0.933
2.709027,-0.1097,-0.0965,-0.7494,0.763
2.719094,-0.1505,-0.1296,-0.4599,0.501
2.752699,-0.2407,-0.2276,-0.2023,0.388
2.754565,-0.7171,-0.3474,0.0523,0.799
2.755524,-0.6593,-0.8536,-0.0536,1.08
2.758977,-0.3288,-1.266,-0.227,1.328
2.768703,0.075,-1.4945,-0.429,1.557
2.780275,0.4196,-1.4413,-0.6756,1.646
2.78888,0.5722,-1.1515,-0.9688,1.61
2.799089,0.6315,-0.7638,-1.3475,1.673
2.809098,0.6486,-0.412,-1.6494,1.82
2.81881,0.7312,-0.1161,-1.7069,1.861
2.847115,0.7275,0.0805,-1.736,1.884
2.848685,0.6669,0.1653,-1.8089,1.935
2.849667,0.6955,0.1288,-1.8279,1.96
2.858893,0.8107,0.1033,-1.8479,2.021
2.869326,0.9169,0.0748,-2.0807,2.275
2.887913,0.9704,-0.0449,-2.4492,2.635
2.890416,1.0271,-0.1798,-2.707,2.901
2.902206,1.1443,-0.2418,-2.8767,3.105
2.909055,1.2539,-0.3112,-3.0185,3.283
2.918879,1.2856,-0.3367,-3.0958,3.369
2.932671,1.0985,-0.3831,-2.9764,3.196
2.939229,0.8432,-0.381,-2.7958,2.945
2.969334,0.6772,-0.4355,-2.7414,2.857
2.971245,0.6698,-0.6326,-2.817,2.964
2.972472,0.717,-0.7433,-2.7409,2.929
2.98386,0.4591,-0.5441,-1.9628,2.088
2.988925,0.1216,-0.401,-1.5426,1.598
3.000661,-0.1831,-0.2873,-1.1903,1.238
3.009134,-0.4474,-0.183,-0.9395,1.057
3.020632,-0.6755,-0.0873,-0.7456,1.01
3.033879,-0.8209,-0.1467,-0.55,0.999
3.039839,-0.9328,-0.324,-0.4261,1.075
3.07483,-1.0487,-0.5121,-0.243,1.192
3.076635,-1.2097,-0.7235,0.1349,1.416
3.077501,-1.4261,-0.9544,0.61,1.821
3.080036,-1.6984,-1.0561,1.0571,2.262
3.088967,-1.9894,-0.9107,1.8005,2.834
3.099992,-2.2834,-0.5775,2.4422,3.393
3.115353,-2.3647,-0.0364,2.4911,3.435
3.120256,-2.2744,0.3903,1.8531,2.96
3.163857,-2.2995,0.4815,0.3627,2.377
3.165915,-2.4934,-0.1204,-0.6312,2.575
3.167567,-2.4184,-1.1704,-0.4812,2.729
3.169572,-2.2863,-1.8891,0.7009,3.047
3.171522,-2.2573,-2.0855,2.3935,3.895
3.179183,-2.1646,-1.8687,3.7311,4.701
3.189347,-1.9719,-1.2854,4.0442,4.679
3.199375,-1.5436,-0.8027,3.3569,3.781
3.214568,-0.3839,-0.6568,0.9481,1.216
3.219299,-0.0523,-0.9872,-0.184,1.006
3.252067,0.0889,-1.4646,-0.8664,1.704
3.253804,0.1809,-1.9617,-0.9589,2.191
3.255023,0.2397,-2.311,-0.589,2.397
3.271517,0.1171,-2.4231,-0.0373,2.426
3.273881,-0.2441,-2.3445,0.7049,2.46
3.28587,-0.7987,-2.078,1.5243,2.698
3.289157,-1.246,-1.7443,2.147,3.034
3.299165,-1.3466,-1.3994,2.5261,3.186
3.313769,-1.1447,-1.13,2.4947,2.968
3.319689,-0.6084,-1.0613,1.707,2.1
3.354037,0.0582,-1.2195,0.812,1.466
3.356599,0.6094,-1.3268,-0.3241,1.496
3.357992,0.9751,-1.4309,-1.3446,2.192
3.360022,1.2663,-1.5063,-2.131,2.901
3.369104,1.4049,-1.418,-2.5535,3.241
3.379483,1.2973,-1.34,-2.6555,3.245
3.391064,1.0798,-1.3218,-2.5824,3.095
3.399604,0.8786,-1.329,-2.3418,2.832
3.409506,0.761,-1.3462,-2.054,2.571
3.419207,0.6696,-1.318,-1.8197,2.345
3.430086,0.5549,-1.2696,-1.7782,2.254
3.472732,0.3109,-0.9971,-1.8407,2.116
3.475368,0.1717,-0.9244,-1.9643,2.178
3.477414,0.0551,-0.9072,-2.1015,2.29
3.479284,0.0202,-0.9201,-2.1032,2.296
3.480921,-0.023,-0.918,-1.9682,2.172
3.491297,-0.0176,-0.9016,-1.7459,1.965
3.498885,0.0036,-0.9246,-1.5394,1.796
3.509601,0.0367,-0.9528,-1.3658,1.666
3.520079,-0.0144,-1.0444,-1.3834,1.733
3.528994,0.0011,-1.2035,-1.4937,1.918
3.544768,0.1147,-1.3261,-1.559,2.05
3.550407,0.2428,-1.4276,-1.5892,2.15
3.584421,0.1472,-1.4451,-1.4887,2.08
3.587366,0.0405,-1.4564,-1.3047,1.956
3.589549,-0.1304,-1.5742,-1.1265,1.94
3.592055,-0.2194,-1.6709,-1.0341,1.977
3.599145,-0.1859,-1.6273,-0.7302,1.793
3.608949,-0.1818,-1.4574,-0.3094,1.501
3.619257,-0.3063,-1.3169,0.0947,1.355
3.62902,-0.4038,-1.1367,0.3133,1.246
3.676114,-0.3669,-1.0091,0.456,1.167
3.677984,-0.2902,-1.0293,0.5694,1.212
3.679977,-0.2284,-1.1046,0.509,1.238
3.681097,-0.2944,-1.1894,0.3019,1.262
3.682742,-0.22,-1.3273,-0.0739,1.347
3.690078,-0.0562,-1.4121,-0.1066,1.417
3.698888,-0.0785,-1.5587,-0.6135,1.677
3.709097,-0.5764,-1.9553,-1.4174,2.483
3.725659,-1.2696,-2.6255,-1.3671,3.221
3.729573,-1.8326,-3.1838,-0.1113,3.675
3.766756,-2.4289,-3.2804,1.7023,4.422
3.769762,-2.9225,-3.1702,3.8314,5.768
3.772421,-3.2093,-2.8365,5.7565,7.175
3.773987,-3.0136,-2.4368,6.6337,7.683
3.779643,-2.1175,-2.1832,5.7998,6.549
3.789267,-1.0623,-2.1926,3.9722,4.66
3.799118,-0.2159,-2.1981,1.7641,2.827
3.809734,0.3549,-2.2588,-0.1162,2.289
3.825264,0.633,-2.2843,-1.5818,2.85
3.829715,0.695,-2.2698,-2.5171,3.46
3.863049,0.643,-2.1395,-2.9058,3.665
3.864962,0.4398,-1.925,-2.6773,3.327
3.866196,0.0168,-1.6721,-2.0871,2.674
3.877876,-0.4672,-1.4062,-1.6772,2.238
3.880099,-0.8328,-1.3027,-1.2216,1.97
3.892887,-0.9373,-1.4001,-0.8079,1.869
3.899065,-0.942,-1.766,-0.5905,2.087
3.908944,-0.7877,-2.1324,-0.4379,2.315
3.923509,-0.3245,-2.0615,-0.6224,2.178
3.929158,-0.0702,-1.7541,-1.0919,2.067
3.959061,0.3079,-1.4417,-1.3055,1.969
3.960912,0.7428,-1.2403,-1.342,1.973
3.962339,1.1287,-1.1213,-1.3599,2.093
3.973618,1.3648,-1.0438,-1.2872,2.147
3.979734,1.4647,-0.9072,-1.0667,2.026
3.989227,1.5778,-0.7034,-0.639,1.842
4.000959,1.6882,-0.4657,-0.1627,1.759
4.008874,1.7454,-0.2259,0.2579,1.779
4.018854,1.7271,0.0039,0.4937,1.796
4.028882,1.7266,0.2349,0.619,1.849
4.038941,1.7158,0.4022,0.6339,1.873
4.086073,1.7067,0.4741,0.5327,1.85
4.088201,1.6988,0.4318,0.3807,1.794
4.089807,1.7618,0.3604,0.3655,1.835
4.091463,1.7837,0.3503,0.6163,1.919
4.092941,1.7416,0.4186,0.9187,2.013
4.105622,1.7059,0.4756,1.2652,2.176
4.109623,1.6468,0.5609,1.4908,2.291
4.123408,1.6246,0.7978,1.6074,2.421
4.130929,1.5889,1.1343,1.5823,2.513
4.140434,1.4742,1.416,1.3769,2.465
4.184387,1.4076,1.6914,0.5677,2.273
4.186342,1.3284,1.6745,0.2444,2.151
4.187834,1.2225,1.656,0.0803,2.06
4.190249,1.1888,1.5492,0.0313,1.953
4.191419,1.2417,1.4514,0.0343,1.91
4.203343,1.2976,1.3943,-0.0762,1.906
4.209206,1.1162,1.2698,-0.2633,1.711
4.219815,1.0334,1.0926,-0.4185,1.561
4.228965,1.0464,1.005,-0.4602,1.522
4.239097,1.0168,0.8204,-0.3725,1.359
4.273208,0.8956,0.5635,-0.0767,1.061
4.275081,0.6472,0.4663,0.7174,1.073
4.27592,0.3841,0.5486,1.6854,1.814
4.27941,0.1341,0.788,2.6013,2.721
4.28937,-0.2262,1.0856,3.2922,3.474
4.302728,-0.5629,1.3418,3.5222,3.811
4.308971,-0.584,1.4209,3.3842,3.717
4.318881,-0.3377,1.3617,3.0287,3.338
4.33559,0.0916,1.0458,2.2551,2.488
4.343323,0.1451,0.7827,1.9449,2.102
4.374159,0.1318,0.7692,1.9333,2.085
4.375784,-0.0087,0.6649,1.8141,1.932
4.37662,-0.2674,0.4653,1.7972,1.876
4.388328,-0.6416,-0.1236,2.0897,2.189
4.390977,-0.5382,-0.4007,2.3662,2.459
4.403635,-0.2928,-0.4578,2.5102,2.568
4.408826,-0.0354,-0.2298,2.2616,2.274
4.418916,0.0544,0.049,1.7122,1.714
4.43599,0.0431,0.2369,1.1592,1.184
4.43906,0.234,0.3201,0.5734,0.697
4.47431,0.5222,0.267,0.0824,0.592
4.476058,0.8575,0.2352,-0.2165,0.915
4.47715,1.0812,0.2228,-0.3172,1.149
4.488666,1.1147,0.1633,-0.5004,1.233
4.490162,1.0997,0.0822,-0.7688,1.344
4.504325,1.2544,-0.0067,-0.9934,1.6
4.508747,1.4462,-0.0075,-1.1114,1.824
4.519097,1.504,0.0451,-1.2679,1.968
4.533476,1.4887,0.0098,-1.4313,2.065
4.539491,1.4556,-0.1107,-1.5387,2.121
4.566559,1.2844,-0.1702,-1.5212,1.998
4.568688,1.045,-0.1049,-1.3385,1.701
4.570964,0.8923,0.108,-0.9826,1.332
4.581219,0.7631,0.3751,-0.5656,1.021
4.588863,0.6119,0.5516,-0.2456,0.86
4.599948,0.5606,0.6525,-0.0277,0.861
4.60934,0.4718,0.8378,-0.1011,0.967
4.619455,0.3843,1.2786,-0.3467,1.379
4.632894,0.395,1.1163,-0.4572,1.269
4.639642,0.5879,0.726,-0.7317,1.187
4.668021,0.7393,0.3851,-0.8031,1.158
4.669799,0.8093,0.3106,-0.5849,1.046
4.67077,0.5761,0.4978,-0.4273,0.873
4.683091,0.3366,0.6655,-0.0602,0.748
4.689059,0.1772,0.6559,0.4991,0.843
4.698902,0.1199,0.6105,1.0604,1.229
4.711237,-0.0175,0.6722,1.6886,1.818
4.71973,-0.1594,0.7126,2.2343,2.351
4.728853,-0.0332,0.8092,2.0943,2.245
4.739568,0.358,1.1507,-0.3393,1.252
4.752351,2.8889,1.7737,-9.28,9.88
4.762282,2.8239,1.2462,-8.3193,8.873
4.781731,-0.5102,0.6052,-1.9748,2.128
4.784324,-0.4127,0.9668,1.6605,1.965
4.788862,0.4814,1.1031,1.9727,2.311
4.799071,0.6594,0.6882,1.7484,1.991
4.815444,0.5899,0.6933,2.0792,2.27
4.819003,0.7065,0.6008,1.8475,2.067
4.831738,0.8242,0.1066,0.5672,1.006
4.838749,0.6852,0.2994,-1.0415,1.282
