time,ax,ay,az,atotal
0.003216,1.5837,-0.1136,-2.0496,2.593
0.010117,0.317,-0.0269,-0.4382,0.541
0.03118,-0.6556,0.0361,0.9549,1.159
0.032021,-1.0798,0.0323,1.6163,1.944
0.04183,-1.1258,0.021,1.7581,2.088
0.045631,-1.1202,0.0752,1.6631,2.007
0.05894,-1.0627,0.1215,1.379,1.745
0.078732,-0.8816,0.1544,1.0964,1.415
0.082,-0.8421,0.2141,1.0535,1.366
0.10246,-0.8773,0.2408,1.1231,1.445
0.103886,-0.8418,0.1874,1.1276,1.42
0.118322,-0.7261,0.1237,1.0427,1.277
0.118941,-0.5344,0.0658,0.7708,0.94
0.133756,-0.2246,0.0228,0.3246,0.395
0.143064,0.0132,-0.0013,-0.0179,0.022
0.145992,0.0265,0.092,-0.6965,0.703
0.156125,-0.0251,0.4084,-0.9977,1.078
0.181119,-0.3785,0.8527,-0.9529,1.334
0.182788,-0.4713,0.8216,-0.4334,1.042
0.186865,-0.4842,0.5884,0.0175,0.762
0.196589,-0.5053,-0.0015,0.1365,0.523
0.211993,-0.4779,-0.4294,-0.3326,0.723
0.229084,-0.1466,-0.5772,-0.8603,1.046
0.231091,0.2229,-0.4626,-1.2065,1.311
0.250788,0.4734,-0.2327,-1.1836,1.296
0.252125,0.3669,0.075,-0.8076,0.89
0.266394,0.1803,0.2044,-0.3986,0.483
0.267744,0.0227,0.2338,0.0829,0.249
0.276571,-0.147,0.0878,0.2753,0.324
0.286689,-0.2189,-0.1355,0.0474,0.262
0.306619,-0.1881,-0.2076,-0.4135,0.499
0.307672,-0.1335,-0.0984,-1.0911,1.104
0.319803,-0.1308,-0.0365,-1.6454,1.651
0.326538,-0.1181,0.0208,-1.9089,1.913
0.336659,-0.1395,0.1786,-1.6058,1.622
0.35334,-0.1082,0.2242,-0.9986,1.029
0.356834,-0.0786,0.1095,-0.5484,0.565
0.366083,-0.1347,0.0957,0.059,0.175
0.376255,-0.2469,0.1649,0.5773,0.649
0.387666,-0.4628,0.079,0.9504,1.06
0.411112,-0.9392,-0.5184,1.0097,1.473
0.413389,-1.1238,-0.4965,1.1251,1.666
0.416117,-1.2886,-0.3978,1.2671,1.85
0.425903,-1.4686,-0.5712,1.4059,2.112
0.435966,-1.7792,-0.7349,1.6182,2.515
0.446296,-2.1518,-0.8434,1.9232,3.007
0.4561,-2.5003,-0.873,2.5639,3.686
0.466789,-2.8083,-0.8607,3.2783,4.402
0.477203,-3.0118,-0.7133,3.6432,4.78
0.489077,-2.956,-0.4455,3.7418,4.789
0.501923,-2.6521,-0.223,3.472,4.375
0.506602,-2.0398,-0.2038,2.9216,3.569
0.516288,-1.3965,-0.2533,2.2633,2.671
0.526442,-0.9537,-0.1148,1.4693,1.755
0.53649,-0.6737,0.2302,0.7341,1.023
0.546198,-0.5747,0.7896,0.0528,0.978
0.556074,-0.6163,1.4076,-0.4137,1.591
0.566367,-0.7296,1.7199,-0.735,2.008
0.597194,-0.8491,1.6601,-0.8306,2.041
0.599083,-0.993,1.2112,-0.5801,1.67
0.600751,-1.0641,0.554,-0.2677,1.229
0.606158,-1.1216,-0.1242,0.3842,1.192
0.616804,-1.2115,-0.6778,0.9882,1.704
0.636275,-1.3722,-1.3123,1.4981,2.419
0.638573,-1.0946,-1.6267,1.5218,2.482
0.651259,-0.6115,-1.8294,1.4718,2.426
0.656311,-0.1215,-1.8435,1.2611,2.237
0.666888,0.2723,-1.7063,0.7749,1.894
0.683849,0.6201,-1.5129,0.0263,1.635
0.686623,0.9174,-1.3846,-0.8623,1.871
0.721784,1.2082,-1.3389,-1.85,2.584
0.723795,1.447,-1.3208,-2.732,3.362
0.725121,1.6964,-1.2514,-3.4705,4.061
0.727762,1.9883,-1.1666,-3.9682,4.589
0.736286,2.1952,-1.0103,-4.2179,4.861
0.746641,2.2054,-0.7348,-4.2824,4.873
0.75622,2.0842,-0.5123,-4.3084,4.813
0.767893,2.0166,-0.4767,-4.2428,4.722
0.80238,1.9762,-0.5095,-3.9888,4.481
0.805253,1.8503,-0.6035,-3.4135,3.929
0.808027,1.7202,-0.6939,-2.8312,3.385
0.810511,1.5775,-0.8722,-2.3135,2.933
0.817584,1.4308,-1.1137,-2.0147,2.71
0.827222,1.3044,-1.2964,-1.9262,2.663
0.836156,1.1393,-1.2984,-1.869,2.545
0.846332,0.8683,-1.1894,-1.8114,2.334
0.86412,0.5365,-1.0769,-1.6385,2.033
0.867244,0.0885,-1.1422,-0.92,1.469
0.905704,-0.0628,-1.2655,-0.7283,1.461
0.907619,-0.3414,-1.366,-0.7344,1.588
0.909996,-0.6631,-1.4048,-0.6713,1.692
0.911123,-0.9687,-1.451,-0.2945,1.769
0.916684,-1.2344,-1.6088,0.2352,2.041
0.926218,-1.5288,-1.8234,0.9128,2.549
0.936174,-1.881,-1.9461,1.6832,3.187
0.945888,-2.2248,-1.9414,2.2635,3.721
0.962153,-2.5118,-1.8079,2.5394,4.003
0.966719,-2.6488,-1.4532,2.3844,3.849
0.991968,-2.6844,-0.9539,1.9105,3.43
0.994249,-2.8101,-0.6904,1.1703,3.121
0.996299,-2.744,-1.152,0.8501,3.095
1.011603,-2.3681,-1.9672,1.0833,3.264
1.016312,-2.307,-2.4148,1.4813,3.653
1.031647,-2.5104,-2.4143,2.4312,4.248
1.036652,-2.5664,-1.9461,3.0822,4.458
1.046504,-2.5556,-1.1372,2.7155,3.898
1.063377,-2.2616,-0.7205,1.6293,2.879
1.06754,-1.6294,-0.6818,0.4479,1.822
1.100319,-0.8895,-0.8107,-0.5302,1.315
1.101769,-0.2718,-0.9891,-1.1925,1.573
1.102612,-0.1192,-1.5926,-1.306,2.063
1.114828,-0.53,-1.9279,-0.8769,2.183
1.117338,-1.1278,-2.1681,-0.0251,2.444
1.130026,-1.7956,-2.2497,1.1552,3.102
1.13642,-2.2876,-2.1385,2.3174,3.896
1.146245,-2.3539,-1.8462,3.2252,4.399
1.161388,-2.0005,-1.5141,3.6266,4.41
1.166246,-1.3373,-1.2238,3.1181,3.607
1.201042,-0.6472,-1.0357,1.8784,2.24
1.203631,-0.05,-0.9411,0.5168,1.075
1.205075,0.3779,-0.9264,-0.8766,1.33
1.2062,0.9131,-1.0674,-1.9272,2.385
1.216464,1.5041,-1.2455,-2.6051,3.256
1.226361,2.0334,-1.5023,-3.0167,3.936
1.240708,2.4699,-1.7991,-3.2583,4.467
1.246549,2.7255,-1.9453,-3.3375,4.728
1.25888,2.6698,-1.8681,-3.2947,4.634
1.266472,2.5383,-1.8738,-3.2084,4.5
1.277261,2.4284,-1.9609,-3.0971,4.397
1.298852,2.3118,-1.9324,-2.9022,4.183
1.305015,2.1346,-1.8272,-2.7446,3.928
1.309815,1.9467,-1.6136,-2.5682,3.604
1.316487,1.7491,-1.3182,-2.3958,3.246
1.346566,1.5473,-0.9178,-2.0487,2.726
1.349479,0.9274,-0.4838,-1.3811,1.732
1.351863,0.7118,-0.4934,-1.2252,1.5
1.363368,0.5901,-0.6262,-1.0187,1.333
1.366162,0.5012,-0.7174,-0.8663,1.231
1.382851,0.4066,-0.7469,-0.8874,1.229
1.386748,0.2715,-0.7677,-1.0195,1.305
1.396649,0.1534,-0.7837,-1.0436,1.314
1.420793,0.004,-0.6829,-0.7696,1.029
1.422451,-0.1166,-0.6408,-0.2762,0.707
1.426463,-0.1834,-0.6744,-0.0583,0.701
1.436115,-0.2453,-0.6338,-0.1163,0.689
1.446308,-0.2606,-0.5265,-0.2315,0.631
1.456726,-0.3003,-0.4754,-0.1322,0.578
1.466785,-0.3934,-0.5061,0.221,0.678
1.47696,-0.4842,-0.6111,0.6165,0.994
1.520496,-0.5359,-0.8569,0.8405,1.314
1.522665,-0.4778,-1.1154,0.9857,1.563
1.524076,-0.3565,-1.2689,1.075,1.701
1.525349,-0.4816,-1.3613,0.7318,1.619
1.526785,-1.0212,-1.74,0.3952,2.056
1.540364,-1.3588,-2.3976,1.1459,2.985
1.54642,-1.3372,-2.6901,2.2343,3.744
1.56046,-1.2213,-2.624,3.5312,4.566
1.578779,-0.0396,-2.1697,4.4209,4.925
1.58221,0.6833,-2.0618,3.4604,4.086
1.59314,1.3175,-2.1235,1.7571,3.055
1.597114,1.7375,-2.1739,0.152,2.787
1.63177,1.7812,-2.0899,-1.0496,2.94
1.634749,1.4245,-1.9876,-1.7446,3.004
1.637452,0.8372,-2.0625,-1.7746,2.847
1.639225,0.1654,-2.0271,-1.3514,2.442
1.646119,-0.6079,-1.7276,-0.4632,1.889
1.656209,-1.4156,-1.2883,0.5158,1.982
1.673443,-2.0292,-0.9064,1.5008,2.682
1.677456,-2.5078,-0.6998,2.2253,3.425
1.710947,-2.7835,-0.7879,2.3625,3.735
1.713095,-2.6045,-1.1113,1.9337,3.429
1.714391,-1.8699,-1.3248,0.851,2.445
1.71632,-1.0884,-1.4316,-0.363,1.835
1.731151,-0.5118,-1.5106,-1.6315,2.282
1.73642,-0.1595,-1.5461,-2.5671,3.001
1.747563,0.0417,-1.3638,-3.0167,3.311
1.757046,0.1215,-1.0893,-3.0415,3.233
1.77328,0.1325,-0.9205,-2.9025,3.048
1.776775,0.1786,-0.8458,-2.662,2.799
1.819595,0.329,-0.8322,-2.3827,2.545
1.822121,0.8656,-0.6917,-2.0912,2.367
1.823923,1.12,-0.5525,-2.1301,2.469
1.825824,1.3549,-0.4772,-2.2062,2.633
1.82808,1.5618,-0.4835,-2.1353,2.689
1.836364,1.7115,-0.4246,-1.9545,2.632
1.846414,1.7188,-0.209,-1.7595,2.469
1.85662,1.453,-0.0082,-1.6014,2.162
1.871572,1.1863,0.0839,-1.5805,1.978
1.87792,1.0671,0.1496,-1.3687,1.742
1.912404,1.0217,0.2325,-0.8892,1.374
1.914353,0.9733,0.3807,-0.2927,1.085
1.920623,0.8997,0.4715,0.2662,1.05
1.92167,0.9232,0.4839,0.6327,1.219
1.933038,0.9407,0.5402,0.8879,1.402
1.95419,0.8234,0.7053,0.8074,1.352
1.956241,0.629,0.8176,0.5122,1.152
1.957782,0.588,0.8904,0.2996,1.108
1.968895,0.6486,1.004,-0.054,1.197
1.979734,0.5969,1.0159,-0.6795,1.36
2.01748,0.1712,0.5908,-0.9669,1.146
2.019069,-0.4144,-0.2666,-0.1966,0.531
2.020903,-1.151,-1.0307,1.1196,1.908
2.02279,-1.9703,-1.327,3.2747,4.046
2.028296,-2.5357,-1.1993,5.737,6.386
2.03605,-2.2482,0.4156,7.0517,7.413
2.0472,-0.9804,1.0815,5.3558,5.551
2.05692,0.3705,1.4948,2.7962,3.192
2.067829,1.3635,1.5309,0.0544,2.051
2.101129,2.0705,1.071,-2.3111,3.283
2.103429,2.4244,0.473,-3.8979,4.615
2.105008,2.3646,-0.0093,-4.4266,5.019
2.107451,1.9422,-0.5652,-3.9933,4.476
2.121709,1.3123,-0.8755,-3.0337,3.419
2.142603,0.4498,-0.922,-1.356,1.7
2.145376,-0.4065,-0.803,0.7705,1.185
2.146419,-1.228,-0.4768,2.9181,3.202
2.158317,-1.8053,-0.0171,4.578,4.921
2.168564,-2.0334,0.3954,5.1302,5.533
2.185085,-1.9381,0.7535,4.496,4.954
2.187142,-1.3833,0.9358,2.977,3.413
2.213463,-0.7314,1.0035,1.2327,1.75
2.215164,-0.2429,0.9704,-0.2969,1.043
2.216291,0.188,0.766,-1.3517,1.565
2.226233,0.5543,0.5496,-1.9103,2.064
2.236439,0.8323,0.4402,-2.0521,2.258
2.245976,0.9841,0.4709,-1.8365,2.136
2.256066,0.9389,0.5458,-1.2427,1.65
2.266173,0.5384,0.5367,-0.2676,0.806
2.302837,0.449,0.4476,-0.0485,0.636
2.305054,0.4694,0.423,-0.0421,0.633
2.306804,0.5186,0.4042,-0.1766,0.681
2.308456,0.5838,0.3748,-0.3652,0.784
2.319667,0.6167,0.4484,-0.4314,0.876
2.340146,0.5877,0.5983,-0.2538,0.876
2.343004,0.5302,0.7291,0.0355,0.902
2.346647,0.5378,0.7938,0.2226,0.984
2.356221,0.6485,0.8259,0.277,1.086
2.366714,0.9258,0.9011,0.0154,1.292
2.386856,1.1799,0.9677,-0.3006,1.555
2.389629,1.3225,1.039,-0.6325,1.797
2.430193,1.2813,1.1554,-0.9956,1.992
2.433267,1.0753,1.3239,-1.2377,2.107
2.435079,0.7756,1.4708,-1.2605,2.087
2.437028,0.4707,1.4824,-1.0342,1.868
2.439256,0.1639,1.3325,-0.6811,1.505
2.447192,-0.1054,1.2266,-0.2318,1.253
2.457574,-0.2833,1.2783,0.2157,1.327
2.46657,-0.4933,1.5115,0.461,1.655
2.48135,-0.7149,1.7553,0.746,2.037
2.486548,-0.8962,1.8566,0.9072,2.252
2.520734,-1.0086,1.9049,0.8627,2.322
2.523157,-1.3845,1.5964,1.0413,2.356
2.525026,-1.5007,1.2327,0.9929,2.181
2.526557,-1.4472,0.9123,1.0415,2.003
2.536242,-1.3954,0.7023,1.1152,1.919
2.546037,-1.4909,0.6386,1.2288,2.035
2.562297,-1.9383,0.5053,1.4287,2.46
2.567035,-2.7297,0.2589,1.79,3.275
2.596406,-3.4444,0.1075,2.4346,4.219
2.598782,-3.8565,-0.0134,3.4614,5.182
2.601063,-3.7716,-0.2197,4.642,5.985
2.616492,-2.9609,-0.3781,5.3213,6.101
2.618622,-1.5121,-0.2292,4.9405,5.172
2.637496,-0.2118,0.1164,3.8684,3.876
2.640287,0.75,0.5291,2.0264,2.225
2.646127,1.3177,0.948,0.1785,1.633
2.65656,1.5522,1.2273,-1.3578,2.4
2.66616,1.375,1.3181,-2.2417,2.942
2.677804,0.9484,1.2724,-2.2156,2.725
2.687089,0.4696,1.1472,-1.4145,1.881
2.709851,0.0273,1.1221,-0.3519,1.176
2.712285,-0.402,1.0213,0.8948,1.416
2.716632,-0.7609,0.9176,1.8886,2.233
2.726043,-0.9456,0.7862,2.479,2.767
2.736593,-0.824,0.4635,2.3612,2.543
2.746145,-0.3777,0.3742,1.4471,1.542
2.756511,0.1694,0.3649,0.2982,0.501
2.766164,0.6581,0.3658,-0.7891,1.091
2.778409,1.1336,0.4116,-1.7336,2.112
2.786623,1.5777,0.4334,-2.3298,2.847
2.817028,1.9021,0.5328,-2.5843,3.253
2.819549,2.0483,0.5964,-2.5267,3.307
2.822044,2.0108,0.601,-2.3703,3.166
2.826293,1.9095,0.5982,-2.1594,2.944
2.837555,1.8592,0.6061,-1.9254,2.744
2.845941,1.8109,0.5953,-1.7442,2.584
2.857018,1.6411,0.5485,-1.6514,2.392
2.866278,1.3862,0.5304,-1.6082,2.188
2.876803,1.1696,0.5639,-1.66,2.108
2.894297,1.0542,0.6623,-1.8587,2.237
2.897487,1.0249,0.7785,-2.1994,2.548
2.948028,1.0676,0.8223,-2.4606,2.805
2.951123,1.1802,0.7776,-2.4617,2.839
2.953203,1.218,0.7498,-2.3305,2.734
2.955518,1.1398,0.7208,-2.0128,2.423
2.957624,1.1303,0.6105,-1.6359,2.08
2.958918,1.145,0.4604,-1.2909,1.786
2.966174,1.1478,0.2991,-0.9839,1.541
2.976778,1.0747,0.0839,-1.0267,1.489
2.992388,0.9148,0.2028,-1.0137,1.38
2.996349,0.6606,0.3154,-0.7995,1.084
3.030446,0.3313,0.2494,-0.703,0.816
3.032167,-0.0353,0.0342,-0.6963,0.698
3.033996,-0.377,-0.1721,-0.7022,0.815
3.042862,-0.7767,-0.3235,-0.5344,0.997
3.046017,-1.3207,-0.5194,-0.0989,1.423
3.058083,-1.9429,-0.8956,0.7172,2.256
3.06622,-2.4964,-1.178,1.6409,3.211
3.076407,-2.864,-1.2554,2.4623,3.98
3.09156,-3.1673,-1.0791,2.9764,4.478
3.096892,-3.4471,-0.821,2.6449,4.422
3.134611,-3.7757,-0.815,1.6273,4.191
3.137137,-3.7853,-1.3568,1.2721,4.218
3.138565,-3.421,-1.9927,1.3084,4.17
3.141128,-3.2937,-2.4138,1.5965,4.384
3.145998,-3.2449,-2.6241,2.1978,4.717
3.156047,-3.2004,-2.4113,2.8215,4.901
3.175067,-3.0804,-1.8517,3.156,4.783
3.178682,-2.8387,-1.2742,2.8512,4.22
3.211091,-2.4605,-1.0382,2.0291,3.354
3.213253,-1.9136,-1.0971,0.4407,2.249
3.214805,-1.0071,-1.6311,-0.062,1.918
3.222498,-0.6907,-2.0662,-0.1162,2.182
3.226013,-0.5376,-2.4958,0.2113,2.562
3.236269,-0.5506,-2.8001,0.4065,2.883
3.24597,-0.6014,-2.9746,0.4374,3.066
3.256573,-0.6644,-3.1572,0.4076,3.252
3.271611,-0.6344,-3.5204,0.2474,3.586
3.277797,-0.3978,-3.8253,0.0173,3.846
3.306202,-0.0802,-3.9285,-0.2256,3.936
3.308264,0.0912,-3.8644,-0.6336,3.917
3.309631,0.106,-3.6845,-1.1771,3.869
3.323653,0.1862,-3.5051,-1.7835,3.937
3.326367,0.4602,-3.2825,-2.2124,3.985
3.34378,0.7011,-2.9908,-2.3892,3.892
3.346602,0.6844,-2.6518,-2.551,3.743
3.356889,0.6409,-2.2803,-2.6613,3.563
3.37189,0.7341,-1.9044,-2.6524,3.347
3.377306,0.9291,-1.6279,-2.7082,3.294
3.412632,1.0641,-1.476,-2.7957,3.336
3.415082,1.1799,-1.567,-2.6638,3.308
3.417155,1.3566,-1.6295,-2.6767,3.415
3.418876,1.5355,-1.6122,-2.8866,3.645
3.426227,1.66,-1.5516,-3.0823,3.829
3.436585,1.5387,-1.4197,-3.1315,3.767
3.446286,1.2678,-1.2564,-2.9687,3.464
3.456511,0.9782,-1.1206,-2.729,3.108
3.470984,0.7328,-0.9569,-2.5762,2.844
3.476466,0.5281,-0.8192,-2.2589,2.46
3.514281,0.3181,-0.793,-1.8254,2.016
3.51733,0.1603,-0.7825,-1.3833,1.597
3.51849,0.023,-0.6959,-0.959,1.185
3.519553,-0.0721,-0.6089,-0.5939,0.854
3.527109,-0.0224,-0.6163,-0.4342,0.754
3.536201,0.1322,-0.6633,-0.7031,0.976
3.548394,0.3516,-0.6623,-0.8912,1.165
3.556393,0.446,-0.5992,-0.7701,1.073
3.57004,0.4024,-0.5186,-0.7077,0.965
3.576314,0.2884,-0.4841,-0.5197,0.767
3.588838,0.066,-0.5213,-0.193,0.56
3.638259,-0.141,-0.6182,0.1455,0.651
3.640616,-0.2744,-0.7791,0.725,1.099
3.641816,-0.2743,-0.8897,1.3295,1.623
3.643439,-0.2196,-0.8841,1.7259,1.952
3.646523,-0.3313,-0.8794,1.7601,1.995
3.647817,-0.7793,-1.0462,1.4929,1.983
3.656421,-1.4188,-1.6045,1.259,2.484
3.669682,-2.0758,-2.9266,2.5594,4.407
3.677259,-2.1399,-2.817,3.8292,5.213
3.708559,-1.9654,-2.3443,4.9166,5.791
3.711709,-1.628,-1.6534,5.3378,5.82
3.713254,-1.0842,-1.0491,4.7809,5.013
3.716166,-0.5105,-0.5999,3.4507,3.54
3.726106,-0.1227,-0.208,1.817,1.833
3.736302,-0.101,0.0927,0.1714,0.219
3.746237,-0.3467,0.3773,-1.2401,1.342
3.756133,-0.6473,0.6049,-1.9993,2.187
3.766431,-0.9282,0.5828,-1.9963,2.277
3.78355,-1.2278,0.3791,-1.7308,2.156
3.786355,-1.2997,0.0525,-1.1823,1.758
3.822852,-1.2299,-0.4777,-0.2852,1.35
3.825137,-1.0455,-1.0513,0.6435,1.616
3.82703,-0.7409,-1.5131,1.3308,2.147
3.828996,-0.3304,-1.7915,1.5301,2.379
3.843603,0.191,-1.9225,1.2881,2.322
3.846854,0.6928,-1.9307,0.4955,2.11
3.856493,1.1125,-1.7912,-0.7089,2.225
3.866477,1.4713,-1.6492,-1.7475,2.817
3.882892,1.7535,-1.531,-2.6243,3.508
3.88652,1.9444,-1.4115,-3.1449,3.958
3.925046,2.002,-1.2752,-3.2133,3.995
3.928905,1.5703,-0.8438,-2.4973,3.068
3.93247,1.3039,-0.5258,-2.0157,2.458
3.934223,0.9993,-0.2579,-1.4799,1.804
3.93679,0.6981,-0.0264,-0.9044,1.143
3.946128,0.4156,0.1878,-0.4772,0.66
3.956184,0.2609,0.4098,-0.3262,0.585
3.966284,0.2434,0.5276,-0.4125,0.713
3.983403,0.3908,0.5499,-0.7673,1.022
3.986847,0.6227,0.4667,-1.0619,1.317
4.025423,0.7274,0.3748,-1.1709,1.428
4.027446,0.695,0.3111,-1.0181,1.271
4.028368,0.6157,0.2967,-0.5395,0.871
4.029507,0.5531,0.3752,-0.0364,0.669
4.036323,0.5181,0.4988,0.4884,0.869
4.046296,0.3924,0.709,0.8901,1.204
4.056744,0.2884,0.921,1.095,1.46
4.066409,0.2493,1.0975,1.1696,1.623
4.081526,0.2608,1.2253,1.0346,1.625
4.086631,0.3771,1.2921,0.7625,1.547
4.120405,0.5101,1.3443,0.5262,1.531
4.122638,0.5553,1.4316,0.3547,1.576
4.123999,0.5204,1.5901,0.2442,1.691
4.14199,0.2553,1.7261,0.3815,1.786
4.143387,0.1875,1.8715,0.5771,1.967
4.146147,0.1963,1.93,0.8053,2.1
4.158134,0.1705,1.8782,0.7499,2.03
4.166448,0.0922,1.5123,0.5053,1.597
4.176594,0.0137,0.8824,0.4839,1.007
4.186275,-0.2449,0.2954,0.7582,0.85
4.197531,-0.6999,-0.0989,1.3298,1.506
4.241026,-1.2725,-0.3138,2.0192,2.407
4.242895,-1.7433,-0.3361,2.765,3.286
4.244921,-1.9252,0.0223,3.5746,4.06
4.24664,-1.6922,0.7248,4.0023,4.405
4.248661,-1.106,1.4518,3.5942,4.031
4.261113,-0.461,2.0021,2.535,3.263
4.266396,0.1419,2.348,1.1035,2.598
4.279554,0.6659,2.3155,-0.2992,2.428
4.286233,0.9439,2.1158,-1.3829,2.698
4.296444,0.9919,1.8155,-2.0291,2.898
4.332811,0.8429,1.3835,-2.2827,2.799
4.334952,0.5981,0.9146,-1.9313,2.219
4.336329,0.2933,0.6844,-1.2484,1.454
4.33762,-0.1742,0.5263,-0.0873,0.561
4.346056,-0.7338,0.4195,1.3025,1.553
4.36072,-1.3681,0.392,2.6674,3.023
4.365945,-1.7962,0.3853,3.6186,4.058
4.376477,-1.7125,0.541,3.3012,3.758
4.38632,-1.2372,0.5562,2.0155,2.429
4.39618,-0.7599,0.5382,0.9279,1.315
4.429181,-0.3031,0.4792,0.0257,0.568
4.431973,0.0471,0.4871,-0.4654,0.675
4.432847,0.2144,0.5522,-0.6464,0.877
4.436398,0.1783,0.7247,-0.645,0.986
4.446473,0.1091,0.8974,-0.5955,1.083
4.458409,0.1638,1.0065,-0.6177,1.192
4.466138,0.2505,1.0485,-0.689,1.279
4.476268,0.2619,1.0349,-0.8539,1.367
4.493192,0.1335,0.9473,-1.1234,1.476
4.496358,-0.0083,0.8959,-1.3547,1.624
4.529087,-0.022,0.9538,-1.4218,1.712
4.530964,-0.0321,1.0782,-1.4024,1.769
4.532261,-0.091,1.1941,-1.3419,1.799
4.543066,-0.1541,1.2271,-1.289,1.786
4.54608,-0.1692,1.2426,-1.3043,1.809
4.558499,-0.0896,1.1673,-1.3672,1.8
4.56593,0.0739,1.0469,-1.388,1.74
4.576566,0.2139,0.9017,-1.4254,1.7
4.592536,0.2969,0.6883,-1.5384,1.711
4.596838,0.3219,0.5518,-1.6343,1.755
4.625999,0.0342,0.4914,-1.3854,1.47
4.627995,-0.1567,0.4051,-1.0539,1.14
4.629135,-0.38,0.3169,-0.6253,0.797
4.640359,-0.614,0.1395,-0.3197,0.706
4.646388,-0.7064,0.0129,-0.1656,0.726
4.656333,-0.6355,0.0241,-0.067,0.639
4.666699,-0.5902,0.1895,0.0054,0.62
4.676496,-0.6287,0.3297,0.113,0.719
4.689637,-0.6992,0.396,0.1546,0.818
4.696365,-0.8058,0.4653,0.1652,0.945
4.723393,-0.958,0.5349,0.4092,1.171
4.725951,-1.1936,0.4672,0.8187,1.521
4.72707,-1.423,0.2705,1.0103,1.766
4.738157,-1.817,-0.0688,0.9606,2.056
4.746174,-2.2812,-0.6228,1.2069,2.655
4.756268,-2.4829,-0.9875,1.6097,3.12
4.766103,-2.7179,-1.0974,1.8703,3.477
4.776131,-3.0106,-1.145,2.2801,3.946
4.807485,-3.0729,-1.0194,2.9837,4.403
4.810892,-2.9178,-0.7284,3.4589,4.584
4.813104,-2.5153,-0.5056,3.6246,4.441
4.821443,-1.9549,-0.4058,3.3111,3.866
4.826564,-1.4448,-0.2391,2.3319,2.754
4.835971,-0.9909,-0.0302,-0.0398,0.992
4.845933,-0.1273,0.0883,-0.8562,0.87
4.856222,0.2347,-0.0885,-1.2541,1.279
4.87186,0.4419,-0.3707,-1.232,1.36
4.876529,0.5103,-0.7499,-0.8484,1.242
4.90478,0.4516,-1.0808,-0.0817,1.174
4.906991,0.2121,-1.3634,0.6654,1.532
4.908039,-0.0966,-1.5215,0.9128,1.777
4.924849,-0.351,-1.6442,0.507,1.756
4.926937,-0.2569,-1.8435,-0.2137,1.874
4.945201,0.0021,-1.9597,-0.888,2.152
4.947518,0.3597,-1.9409,-1.4812,2.468
4.957902,0.6937,-1.8518,-1.7321,2.629
4.966209,0.9066,-1.7583,-1.797,2.673
4.976332,1.0341,-1.6372,-1.7008,2.577
4.987038,1.1451,-1.4392,-1.5064,2.377
4.996853,1.206,-1.2149,-1.3574,2.185
5.022241,1.2138,-1.0377,-1.2085,2.003
5.024164,1.1787,-0.8208,-1.1904,1.865
5.026874,1.1441,-0.7114,-1.371,1.922
5.037292,1.2049,-0.6798,-1.7045,2.195
5.04658,1.2873,-0.5655,-1.9584,2.411
5.056545,1.3276,-0.2759,-2.155,2.546
5.071412,1.2203,0.0117,-2.306,2.609
5.076362,1.1348,0.0923,-2.5423,2.786
5.102057,1.1712,0.2137,-2.372,2.654
5.104408,1.1389,0.4311,-2.0682,2.4
5.105987,0.9884,0.6131,-1.6695,2.035
5.122592,0.8019,0.633,-1.4248,1.753
5.126229,0.523,0.6185,-1.4907,1.697
5.142394,0.3648,0.6595,-1.7376,1.894
5.154094,0.3183,0.7173,-1.8864,2.043
5.158294,0.225,0.7168,-1.9048,2.048
5.166022,0.0406,0.6122,-1.7058,1.813
5.176177,-0.1395,0.4251,-1.326,1.399
5.18635,-0.3429,0.3326,-0.8754,0.997
5.217632,-0.6051,0.4125,-0.4442,0.856
5.219229,-0.8705,0.5211,0.027,1.015
5.220684,-1.0958,0.5343,0.535,1.331
5.226094,-1.1599,0.465,1.0039,1.603
5.236247,-0.9977,0.3999,1.3387,1.717
5.248094,-0.9366,0.3167,1.41,1.722
5.256133,-0.9833,0.1852,1.2805,1.625
5.266145,-1.0998,0.1785,1.0907,1.559
5.276208,-1.2867,0.2303,0.9275,1.603
5.286035,-1.5462,0.3804,0.9806,1.87
5.322198,-1.6186,0.5796,1.368,2.197
5.324222,-1.2097,0.6395,1.5656,2.079
5.32575,-1.496,0.1384,1.2147,1.932
5.327903,-1.5416,-0.7098,1.2686,2.119
5.342166,-1.3869,-1.4152,1.6022,2.548
5.346429,-1.0536,-1.8211,2.5144,3.279
5.356322,-0.8063,-1.7178,3.3481,3.848
5.366406,-0.9201,-1.1287,3.7212,3.996
5.376455,-0.8041,-0.4599,3.4355,3.558
5.386237,-0.6075,0.1203,2.675,2.746
5.420717,-0.3953,0.293,1.7086,1.778
5.422588,-0.1473,0.1629,0.7875,0.818
5.423455,0.2713,-0.2216,0.2178,0.412
5.426316,0.3822,-0.5721,-0.3215,0.759
5.436414,0.2956,-0.721,-0.5552,0.957
5.449211,0.0615,-0.6334,-0.3715,0.737
5.456601,-0.4093,-0.6044,-0.1955,0.756
5.466204,-0.8272,-0.7187,-0.1365,1.104
5.481927,-0.8623,-0.866,0.0306,1.222
5.486505,-0.7768,-0.8127,0.6436,1.295
5.5114,-0.9365,-0.8309,0.8714,1.525
5.512996,-0.8321,-0.8217,0.6011,1.315
5.516465,-0.4333,-0.7661,0.1592,0.894
5.532142,-0.2179,-0.7197,-0.1201,0.762
5.536137,0.0412,-1.0714,-1.1035,1.539
5.551637,2.1059,-1.5938,-5.8184,6.39
5.555835,1.1033,-1.5685,-1.8029,2.632
5.566961,0.4813,-1.1555,0.6398,1.406
5.576213,0.7812,-0.7784,0.6965,1.304
5.585985,1.1552,-0.6963,-0.3576,1.395
5.595999,1.2334,-0.6034,-0.2094,1.389
5.605888,1.2773,-0.9117,-0.2725,1.593
5.621376,1.3559,-1.0951,-0.7487,1.897
5.634274,1.3115,-0.827,-1.5996,2.228
5.636738,1.5791,-1.0163,-2.7386,3.321
5.649285,1.9675,-1.5559,-3.3144,4.157
5.656001,1.8217,-1.3417,-3.2442,3.955
