time,ax,ay,az,atotal
0.0,-0.09,0.02,-0.14,0.17
0.01,-0.01,0.1,-0.34,0.36
0.02,0.04,0.21,-0.35,0.41
0.03,0.01,0.22,-0.28,0.35
0.04,-0.03,0.22,-0.16,0.27
0.051,-0.07,0.23,-0.04,0.25
0.061,-0.13,0.22,0.09,0.27
0.071,-0.15,0.28,0.21,0.38
0.081,-0.13,0.24,0.16,0.31
0.091,-0.1,0.13,0.06,0.17
0.101,-0.05,0.08,0.02,0.09
0.111,-0.02,0.06,-0.09,0.11
0.121,0.01,0.18,-0.16,0.24
0.131,0.03,0.28,-0.18,0.33
0.141,0.04,0.35,-0.23,0.42
0.151,0.08,0.4,-0.29,0.5
0.161,0.11,0.46,-0.34,0.58
0.171,0.14,0.47,-0.36,0.61
0.182,0.12,0.49,-0.28,0.57
0.192,0.08,0.45,-0.18,0.49
0.202,0.02,0.37,-0.06,0.38
0.212,0.03,0.27,0.02,0.27
0.222,0.03,0.22,0.05,0.23
0.232,0.05,0.29,0.03,0.29
0.242,0.07,0.34,-0.03,0.35
0.252,0.02,0.41,-0.09,0.42
0.262,-0.02,0.5,-0.2,0.54
0.272,0.01,0.55,-0.31,0.63
0.282,0.03,0.55,-0.28,0.62
0.292,-0.01,0.56,-0.21,0.6
0.302,-0.03,0.58,-0.22,0.62
0.312,0.0,0.54,-0.26,0.6
0.323,0.04,0.48,-0.26,0.54
0.333,0.04,0.44,-0.28,0.53
0.343,0.05,0.44,-0.31,0.54
0.353,0.05,0.43,-0.33,0.54
0.363,0.06,0.43,-0.35,0.56
0.373,0.1,0.45,-0.4,0.61
0.383,0.06,0.51,-0.41,0.66
0.393,-0.03,0.63,-0.29,0.69
0.403,-0.05,0.65,-0.34,0.73
0.413,0.13,0.6,-0.43,0.74
0.423,0.27,0.47,-0.43,0.69
0.433,0.32,0.43,-0.46,0.71
0.443,0.35,0.51,-0.54,0.82
0.454,0.35,0.58,-0.63,0.92
0.463,0.4,0.63,-0.74,1.05
0.474,0.43,0.74,-0.83,1.19
0.484,0.3,0.91,-0.73,1.2
0.494,-0.0,0.69,-0.23,0.72
0.504,0.07,0.82,-0.62,1.03
0.514,0.12,0.79,-0.38,0.88
0.524,0.04,0.16,0.57,0.59
0.534,0.41,0.45,0.42,0.74
0.544,0.6,0.89,0.01,1.07
0.554,0.43,1.1,-0.17,1.19
0.564,0.16,1.21,-0.32,1.26
0.574,0.14,1.3,-0.43,1.38
0.585,0.09,1.32,-0.56,1.43
0.595,0.04,1.32,-0.65,1.47
0.605,-0.0,1.31,-0.69,1.49
0.615,-0.07,1.23,-0.69,1.41
0.625,-0.17,1.19,-0.59,1.34
0.635,-0.23,1.17,-0.36,1.25
0.645,-0.26,1.08,-0.17,1.12
0.655,-0.25,0.96,-0.07,0.99
0.665,-0.22,0.87,-0.2,0.92
0.675,-0.12,0.87,-0.38,0.96
0.685,-0.03,0.93,-0.43,1.02
0.695,-0.0,1.0,-0.32,1.05
0.705,0.0,1.0,-0.18,1.02
0.715,0.03,0.92,-0.16,0.93
0.725,0.09,0.82,-0.27,0.86
0.735,0.17,0.75,-0.38,0.86
0.746,0.28,0.77,-0.55,0.99
0.756,0.46,0.88,-0.65,1.19
0.766,0.55,0.99,-0.53,1.25
0.776,0.51,1.02,-0.28,1.17
0.786,0.46,0.95,-0.06,1.05
0.796,0.48,0.87,0.1,1.0
0.806,0.59,0.83,0.19,1.04
0.816,0.57,0.75,0.4,1.02
0.826,0.45,0.5,0.54,0.86
0.836,0.38,0.22,0.6,0.74
0.846,0.36,0.07,0.51,0.63
0.857,0.35,0.01,0.33,0.48
0.866,0.34,-0.04,0.1,0.36
0.877,0.26,-0.19,-0.09,0.34
0.887,0.08,-0.46,-0.14,0.49
0.897,-0.08,-0.78,0.08,0.78
0.907,-0.13,-1.09,0.34,1.15
0.917,-0.19,-1.31,0.42,1.39
0.927,-0.17,-1.27,0.4,1.34
0.937,-0.17,-1.0,0.18,1.03
0.947,-0.25,-0.64,0.02,0.68
0.957,-0.31,-0.38,0.05,0.49
0.967,-0.44,-0.29,0.09,0.53
0.977,-0.51,-0.29,0.09,0.59
0.988,-0.58,-0.32,0.15,0.68
0.997,-0.69,-0.38,0.22,0.82
1.008,-0.72,-0.47,0.24,0.89
1.018,-0.77,-0.61,0.25,1.01
1.028,-0.76,-0.67,0.12,1.02
1.038,-0.64,-0.59,-0.13,0.88
1.048,-0.41,-0.44,-0.37,0.71
1.058,-0.18,-0.27,-0.52,0.61
1.068,0.06,-0.14,-0.63,0.65
1.078,0.25,-0.06,-0.64,0.69
1.088,0.26,-0.01,-0.47,0.54
1.098,0.24,0.03,-0.16,0.29
1.108,0.18,0.15,0.26,0.35
1.118,0.09,0.3,0.46,0.56
1.128,0.13,0.4,0.39,0.58
1.139,0.15,0.45,0.26,0.54
1.149,0.1,0.46,0.07,0.48
1.159,0.1,0.47,-0.17,0.51
1.169,0.02,0.47,-0.39,0.61
1.179,-0.1,0.48,-0.67,0.83
1.189,-0.12,0.6,-0.85,1.05
1.199,-0.23,0.81,-0.99,1.3
1.209,-0.2,0.99,-1.06,1.46
1.219,-0.24,0.97,-0.83,1.3
1.229,-0.31,0.81,-0.45,0.97
1.239,-0.35,0.63,-0.06,0.73
1.249,-0.3,0.53,0.18,0.64
1.259,-0.17,0.57,0.21,0.63
1.27,-0.01,0.6,0.12,0.61
1.279,0.05,0.48,-0.01,0.48
1.29,0.08,0.31,-0.18,0.37
1.3,0.2,0.22,-0.34,0.45
1.31,0.32,0.18,-0.51,0.63
1.32,0.4,0.15,-0.69,0.81
1.33,0.49,0.11,-0.83,0.97
1.34,0.55,0.03,-0.88,1.03
1.35,0.6,-0.0,-0.89,1.07
1.36,0.62,0.02,-0.77,0.99
1.37,0.58,0.09,-0.59,0.84
1.38,0.56,0.21,-0.42,0.73
1.39,0.5,0.37,-0.26,0.68
1.4,0.39,0.46,-0.17,0.63
1.411,0.3,0.53,-0.22,0.65
1.42,0.3,0.61,-0.33,0.76
1.431,0.38,0.69,-0.43,0.89
1.441,0.37,0.7,-0.5,0.94
1.451,0.38,0.63,-0.62,0.96
1.461,0.36,0.62,-0.77,1.05
1.471,0.36,0.7,-0.81,1.12
1.481,0.32,0.77,-0.75,1.12
1.491,0.23,0.75,-0.59,0.98
1.501,0.16,0.77,-0.42,0.89
1.511,0.13,0.9,-0.28,0.95
1.521,0.08,1.03,-0.13,1.04
1.532,0.02,1.12,0.06,1.12
1.541,-0.05,1.08,0.25,1.11
1.551,-0.08,0.94,0.41,1.02
1.562,-0.11,0.81,0.49,0.95
1.572,-0.1,0.76,0.54,0.94
1.582,-0.13,0.81,0.47,0.95
1.592,-0.14,0.84,0.26,0.89
1.602,-0.03,0.92,0.12,0.93
1.612,0.12,1.11,0.05,1.12
1.622,0.14,1.25,0.23,1.28
1.632,0.07,1.25,0.67,1.42
1.642,0.0,1.08,1.24,1.64
1.652,-0.1,0.79,1.85,2.01
1.662,-0.24,0.47,2.28,2.34
1.672,-0.3,0.18,2.36,2.39
1.682,-0.21,-0.07,2.2,2.21
1.693,-0.06,-0.29,1.83,1.86
1.702,0.04,-0.49,1.33,1.42
1.713,0.02,-0.66,0.83,1.06
1.723,-0.08,-0.83,0.39,0.92
1.733,-0.09,-0.96,0.03,0.97
1.743,0.02,-0.89,-0.19,0.91
1.753,0.08,-0.78,-0.17,0.81
1.763,0.09,-0.73,-0.04,0.73
1.773,0.01,-0.75,0.13,0.76
1.783,-0.13,-0.78,0.2,0.82
1.793,-0.12,-0.8,0.01,0.81
1.803,-0.09,-0.82,-0.28,0.87
1.813,-0.02,-0.85,-0.56,1.02
1.824,0.11,-0.88,-0.74,1.16
1.833,0.24,-0.92,-0.84,1.27
1.844,0.35,-0.93,-0.81,1.29
1.854,0.42,-0.87,-0.63,1.16
1.864,0.42,-0.74,-0.31,0.91
1.874,0.33,-0.66,-0.03,0.74
1.884,0.28,-0.6,0.29,0.72
1.894,0.21,-0.6,0.51,0.81
1.904,0.16,-0.63,0.7,0.95
1.914,0.07,-0.75,0.9,1.17
1.924,-0.0,-0.85,1.01,1.33
1.934,-0.02,-0.91,0.93,1.3
1.944,-0.03,-0.89,0.72,1.14
1.954,0.02,-0.8,0.4,0.89
1.965,0.04,-0.76,0.09,0.77
1.975,-0.0,-0.73,-0.15,0.74
1.985,-0.05,-0.66,-0.3,0.72
1.995,0.01,-0.53,-0.44,0.69
2.005,0.12,-0.39,-0.53,0.67
2.015,0.03,-0.39,-0.44,0.59
2.025,-0.02,-0.43,-0.4,0.59
2.035,0.07,-0.33,-0.45,0.56
2.045,0.05,-0.17,-0.57,0.59
2.055,0.02,-0.1,-0.71,0.72
2.065,0.03,-0.07,-0.9,0.91
2.075,0.07,-0.01,-1.08,1.08
2.085,0.12,0.08,-1.21,1.22
2.096,0.14,0.13,-1.22,1.23
2.106,0.13,0.19,-1.19,1.21
2.116,0.16,0.26,-1.03,1.08
2.126,0.23,0.35,-0.77,0.88
2.136,0.25,0.47,-0.44,0.69
2.146,0.19,0.53,-0.12,0.58
2.156,0.14,0.57,0.06,0.59
2.166,0.0,0.52,0.07,0.53
2.176,0.08,0.62,0.03,0.63
2.186,0.22,0.77,-0.1,0.81
2.196,0.23,0.79,-0.3,0.87
2.206,0.23,0.71,-0.49,0.9
2.217,0.26,0.63,-0.6,0.91
2.226,0.31,0.61,-0.52,0.86
2.237,0.37,0.61,-0.33,0.79
2.246,0.4,0.6,-0.21,0.75
2.257,0.36,0.54,-0.01,0.65
2.267,0.3,0.4,0.11,0.51
2.277,0.24,0.36,0.19,0.47
2.287,0.25,0.45,0.19,0.55
2.297,0.27,0.61,0.1,0.67
2.307,0.24,0.73,-0.05,0.77
2.317,0.26,0.87,-0.16,0.92
2.327,0.27,0.99,-0.28,1.06
2.337,0.26,1.02,-0.41,1.13
2.347,0.32,1.0,-0.43,1.14
2.357,0.35,1.0,-0.31,1.11
2.368,0.34,1.04,-0.1,1.1
2.377,0.35,1.05,0.13,1.12
2.387,0.33,1.02,0.4,1.14
2.398,0.24,0.91,0.73,1.19
2.408,0.08,0.68,1.03,1.23
2.418,-0.07,0.4,1.29,1.35
2.428,-0.22,0.21,1.37,1.41
2.438,-0.26,0.12,1.28,1.31
2.448,-0.3,0.06,1.13,1.17
2.458,-0.31,0.04,0.9,0.95
2.468,-0.17,0.02,0.64,0.66
2.478,-0.02,-0.04,0.37,0.38
2.488,0.07,-0.13,0.3,0.34
2.499,0.14,-0.23,0.46,0.53
2.508,0.12,-0.39,0.73,0.84
2.519,0.06,-0.64,0.93,1.13
2.529,-0.07,-0.87,0.99,1.32
2.539,-0.16,-0.99,0.94,1.37
2.549,-0.22,-1.02,0.82,1.33
2.559,-0.28,-1.08,0.62,1.27
2.569,-0.31,-1.09,0.26,1.16
2.579,-0.25,-0.98,-0.21,1.03
2.589,-0.21,-0.76,-0.58,0.98
2.599,-0.19,-0.57,-0.87,1.05
2.609,-0.1,-0.51,-1.14,1.25
2.619,-0.1,-0.59,-1.29,1.42
2.629,-0.14,-0.64,-1.23,1.39
2.639,-0.24,-0.61,-1.04,1.23
2.65,-0.36,-0.63,-0.82,1.09
2.66,-0.43,-0.62,-0.57,0.95
2.67,-0.51,-0.54,-0.22,0.77
2.68,-0.71,-0.5,0.1,0.87
2.69,-0.76,-0.54,0.21,0.96
2.7,-0.67,-0.58,0.16,0.9
2.71,-0.66,-0.59,0.1,0.89
2.72,-0.67,-0.56,-0.02,0.87
2.73,-0.62,-0.46,-0.19,0.8
2.74,-0.6,-0.32,-0.35,0.77
2.75,-0.59,-0.17,-0.42,0.74
2.76,-0.5,0.01,-0.42,0.65
2.77,-0.48,0.2,-0.39,0.65
2.78,-0.44,0.28,-0.45,0.69
2.791,-0.39,0.26,-0.46,0.65
2.8,-0.33,0.2,-0.54,0.67
2.811,-0.26,0.21,-0.78,0.85
2.821,-0.15,0.37,-0.95,1.03
2.831,-0.11,0.59,-0.95,1.12
2.841,-0.1,0.74,-0.88,1.16
2.851,-0.09,0.86,-0.86,1.22
2.861,-0.14,0.91,-0.95,1.32
2.871,-0.18,0.99,-1.09,1.49
2.881,-0.17,1.14,-1.25,1.7
2.891,-0.16,1.29,-1.32,1.85
2.901,-0.17,1.3,-1.22,1.79
2.911,-0.34,1.13,-1.1,1.61
2.921,-0.42,1.04,-0.94,1.46
2.932,-0.39,1.03,-0.77,1.34
2.942,-0.46,0.98,-0.41,1.16
2.952,-0.61,0.86,-0.04,1.05
2.962,-0.59,0.89,0.16,1.08
2.972,-0.51,0.96,0.28,1.12
2.982,-0.51,0.96,0.36,1.14
2.992,-0.5,0.92,0.4,1.12
3.002,-0.44,0.89,0.38,1.06
3.012,-0.4,0.8,0.34,0.95
3.022,-0.4,0.66,0.36,0.85
3.032,-0.37,0.56,0.39,0.78
3.042,-0.23,0.59,0.33,0.72
3.052,-0.03,0.74,0.14,0.75
3.062,0.05,0.84,-0.08,0.85
3.073,0.04,0.84,-0.18,0.86
3.083,0.06,0.88,-0.13,0.89
3.093,0.14,0.96,0.04,0.97
3.103,0.18,0.98,0.35,1.06
3.113,0.09,0.87,0.88,1.24
3.123,-0.11,0.57,1.54,1.65
3.133,-0.21,0.23,2.08,2.1
3.143,-0.31,-0.03,2.43,2.45
3.153,-0.43,-0.19,2.74,2.78
3.163,-0.56,-0.38,2.8,2.88
3.173,-0.58,-0.57,2.49,2.62
3.183,-0.53,-0.8,1.9,2.13
3.193,-0.38,-1.0,1.19,1.6
3.204,-0.16,-1.08,0.47,1.19
3.214,0.05,-1.09,-0.16,1.11
3.224,0.25,-1.04,-0.61,1.23
3.234,0.44,-0.98,-0.82,1.35
3.244,0.55,-0.95,-0.79,1.36
3.254,0.58,-0.98,-0.64,1.3
3.264,0.53,-1.04,-0.42,1.23
3.274,0.44,-1.1,-0.18,1.2
3.284,0.4,-1.17,0.0,1.24
3.294,0.48,-1.11,0.02,1.21
3.304,0.6,-1.04,-0.08,1.2
3.314,0.73,-0.98,-0.25,1.24
3.324,0.76,-0.96,-0.4,1.28
3.335,0.76,-0.96,-0.45,1.31
3.344,0.73,-0.97,-0.35,1.27
3.355,0.64,-1.03,-0.11,1.22
3.365,0.52,-1.07,0.24,1.21
3.375,0.42,-1.04,0.58,1.26
3.385,0.29,-1.05,0.82,1.37
3.395,0.24,-1.09,0.94,1.46
3.405,0.21,-1.05,0.86,1.37
3.415,0.15,-1.16,0.58,1.31
3.425,0.21,-1.18,0.18,1.21
3.435,0.28,-0.92,-0.27,1.0
3.445,0.35,-0.55,-0.61,0.89
3.455,0.42,-0.24,-0.85,0.97
3.465,0.52,0.01,-1.04,1.16
3.476,0.52,0.15,-1.05,1.19
3.485,0.44,0.19,-0.95,1.06
3.496,0.37,0.21,-0.84,0.94
3.506,0.27,0.3,-0.76,0.86
3.516,0.17,0.42,-0.71,0.84
3.526,0.17,0.57,-0.71,0.93
3.536,0.14,0.67,-0.71,0.99
3.546,0.16,0.7,-0.73,1.03
3.556,0.23,0.64,-0.78,1.03
3.566,0.3,0.49,-0.81,0.99
3.576,0.37,0.35,-0.8,0.95
3.586,0.35,0.27,-0.68,0.81
3.596,0.37,0.26,-0.58,0.74
3.607,0.44,0.29,-0.53,0.74
3.616,0.52,0.33,-0.51,0.8
3.627,0.53,0.36,-0.47,0.8
3.637,0.5,0.33,-0.41,0.73
3.647,0.45,0.25,-0.28,0.59
3.657,0.4,0.22,-0.1,0.47
3.667,0.44,0.2,0.05,0.49
3.677,0.42,0.12,0.18,0.47
3.687,0.35,0.01,0.3,0.46
3.697,0.24,-0.05,0.32,0.41
3.707,0.14,-0.07,0.25,0.3
3.717,0.13,0.03,0.14,0.2
3.728,0.22,0.21,-0.05,0.31
3.737,0.32,0.38,-0.18,0.53
3.748,0.34,0.45,-0.12,0.58
3.758,0.26,0.45,0.05,0.52
3.768,0.17,0.45,0.2,0.52
3.778,0.09,0.49,0.33,0.6
3.788,-0.04,0.56,0.51,0.76
3.798,-0.19,0.62,0.69,0.95
3.808,-0.36,0.59,0.77,1.04
3.818,-0.52,0.46,0.72,0.99
3.828,-0.62,0.33,0.61,0.93
3.838,-0.68,0.24,0.45,0.85
3.848,-0.66,0.16,0.27,0.73
3.858,-0.55,0.11,0.18,0.59
3.868,-0.48,0.07,0.19,0.52
3.878,-0.43,-0.02,0.22,0.49
3.888,-0.38,-0.13,0.32,0.51
3.899,-0.31,-0.21,0.44,0.58
3.909,-0.26,-0.28,0.58,0.69
3.919,-0.29,-0.34,0.7,0.83
3.929,-0.34,-0.43,0.73,0.92
3.939,-0.34,-0.47,0.57,0.81
3.949,-0.27,-0.45,0.29,0.6
3.959,-0.24,-0.43,0.04,0.49
3.969,-0.18,-0.37,-0.15,0.43
3.979,-0.11,-0.31,-0.26,0.42
3.989,-0.09,-0.29,-0.24,0.39
3.999,-0.13,-0.29,-0.06,0.33
4.01,-0.23,-0.36,0.11,0.44
4.019,-0.25,-0.42,0.2,0.53
4.029,-0.25,-0.43,0.26,0.57
4.04,-0.3,-0.41,0.4,0.65
4.05,-0.36,-0.39,0.55,0.76
4.06,-0.37,-0.4,0.68,0.88
4.07,-0.37,-0.42,0.81,0.99
4.08,-0.41,-0.45,0.87,1.06
4.09,-0.4,-0.5,0.73,0.97
4.1,-0.36,-0.52,0.48,0.79
4.11,-0.36,-0.49,0.2,0.64
4.12,-0.38,-0.43,-0.07,0.58
4.13,-0.35,-0.33,-0.31,0.57
4.14,-0.32,-0.23,-0.51,0.64
4.15,-0.25,-0.14,-0.65,0.71
4.161,-0.2,-0.08,-0.72,0.76
4.17,-0.2,-0.06,-0.78,0.81
4.181,-0.18,-0.0,-0.84,0.86
4.191,-0.18,0.15,-0.86,0.89
4.201,-0.21,0.31,-0.8,0.88
4.211,-0.24,0.43,-0.7,0.85
4.221,-0.2,0.53,-0.69,0.89
4.231,-0.17,0.59,-0.71,0.94
4.241,-0.22,0.56,-0.71,0.93
4.251,-0.3,0.45,-0.75,0.93
4.261,-0.26,0.35,-0.88,0.98
4.271,-0.18,0.3,-1.0,1.05
4.281,-0.15,0.32,-0.97,1.03
4.291,-0.16,0.38,-0.88,0.97
4.302,-0.13,0.55,-0.8,0.98
4.312,-0.11,0.76,-0.73,1.06
4.322,-0.14,0.94,-0.62,1.13
4.332,-0.22,1.0,-0.53,1.15
4.342,-0.29,1.01,-0.49,1.16
4.352,-0.31,0.99,-0.43,1.13
4.362,-0.35,0.99,-0.27,1.09
4.372,-0.46,0.94,-0.06,1.04
4.382,-0.54,0.81,0.05,0.97
4.392,-0.51,0.73,0.05,0.89
4.402,-0.48,0.71,0.06,0.86
4.412,-0.48,0.69,0.17,0.86
4.422,-0.47,0.66,0.33,0.88
4.433,-0.44,0.62,0.45,0.89
4.443,-0.32,0.62,0.51,0.86
4.453,-0.16,0.72,0.42,0.85
4.463,-0.03,0.81,0.22,0.84
4.473,0.07,0.85,0.02,0.85
4.483,0.17,0.91,-0.05,0.93
4.493,0.22,0.99,0.06,1.02
4.503,0.18,1.03,0.28,1.08
4.513,0.18,0.98,0.56,1.14
4.523,0.07,0.83,0.88,1.21
4.533,-0.1,0.59,1.15,1.3
4.544,-0.23,0.31,1.37,1.43
4.553,-0.29,0.06,1.47,1.5
4.564,-0.21,-0.15,1.36,1.38
4.573,-0.12,-0.33,1.12,1.18
4.583,-0.01,-0.51,0.89,1.02
4.594,0.05,-0.7,0.7,0.99
4.604,0.15,-0.83,0.55,1.01
4.614,0.3,-0.82,0.48,1.0
4.624,0.37,-0.81,0.41,0.98
4.634,0.42,-0.8,0.3,0.95
4.644,0.46,-0.8,0.12,0.93
4.654,0.4,-0.82,-0.06,0.91
4.664,0.36,-0.78,-0.16,0.87
4.674,0.38,-0.73,-0.28,0.87
4.684,0.42,-0.68,-0.31,0.86
4.694,0.45,-0.63,-0.34,0.85
4.704,0.55,-0.58,-0.45,0.92
4.714,0.66,-0.52,-0.57,1.01
4.725,0.73,-0.45,-0.65,1.07
4.735,0.72,-0.4,-0.66,1.06
4.745,0.69,-0.35,-0.58,0.97
4.755,0.62,-0.32,-0.39,0.8
4.765,0.52,-0.31,-0.11,0.62
4.775,0.39,-0.33,0.22,0.56
4.785,0.23,-0.42,0.5,0.69
4.795,0.12,-0.55,0.76,0.95
4.805,0.02,-0.83,0.84,1.18
4.815,0.07,-1.01,0.81,1.29
4.825,0.11,-1.12,0.7,1.32
4.835,0.04,-1.2,0.49,1.3
4.846,-0.04,-1.13,0.16,1.14
4.856,0.02,-0.91,-0.37,0.98
4.866,0.25,-0.59,-0.9,1.11
4.876,0.34,-0.3,-1.18,1.27
4.886,0.32,-0.15,-1.15,1.2
4.896,0.24,-0.06,-0.97,1.0
4.906,0.25,0.05,-0.82,0.86
4.916,0.23,0.14,-0.71,0.76
4.926,0.17,0.15,-0.69,0.73
4.936,0.15,0.16,-0.73,0.76
4.946,0.14,0.22,-0.69,0.74
4.956,0.11,0.27,-0.61,0.67
4.967,0.05,0.21,-0.57,0.61
4.976,0.05,0.16,-0.57,0.59
4.987,0.1,0.16,-0.49,0.53
4.997,0.03,0.16,-0.25,0.29
5.007,-0.02,0.16,-0.1,0.19
5.017,-0.0,0.21,-0.12,0.24
5.027,0.05,0.32,-0.13,0.35
5.037,0.01,0.5,-0.1,0.51
5.047,-0.03,0.61,-0.14,0.63
5.057,0.04,0.64,-0.28,0.7
5.067,0.07,0.67,-0.32,0.74
5.077,-0.01,0.72,-0.23,0.76
5.087,-0.13,0.89,-0.03,0.9
5.097,-0.23,1.1,0.17,1.14
5.107,-0.23,1.2,0.3,1.26
5.118,-0.22,1.21,0.36,1.28
5.127,-0.12,1.15,0.32,1.2
5.138,-0.02,1.05,0.14,1.06
5.148,0.1,0.83,-0.11,0.84
5.158,0.17,0.52,-0.17,0.57
5.168,0.23,0.22,0.0,0.31
5.178,0.34,0.11,0.31,0.47
5.188,0.43,0.21,0.79,0.92
5.198,0.33,0.23,1.34,1.4
5.208,0.06,0.15,1.88,1.89
5.218,-0.23,0.13,2.21,2.22
5.228,-0.42,0.12,2.25,2.29
5.238,-0.52,-0.03,1.95,2.02
5.248,-0.51,-0.24,1.38,1.5
5.259,-0.58,-0.54,0.76,1.1
5.268,-0.54,-0.75,0.15,0.94
5.279,-0.47,-0.81,-0.23,0.97
5.289,-0.43,-0.8,-0.37,0.98
5.299,-0.36,-0.79,-0.39,0.95
5.309,-0.32,-0.85,-0.33,0.97
5.319,-0.43,-0.9,-0.17,1.02
5.329,-0.55,-1.0,-0.1,1.15
5.339,-0.52,-1.13,-0.11,1.25
5.349,-0.51,-1.17,-0.08,1.29
5.359,-0.57,-1.14,-0.08,1.27
5.369,-0.66,-1.09,-0.12,1.28
5.379,-0.7,-0.97,-0.2,1.21
5.39,-0.68,-0.85,-0.37,1.15
5.399,-0.52,-0.72,-0.55,1.05
5.409,-0.38,-0.58,-0.47,0.84
5.42,-0.37,-0.58,-0.22,0.72
5.43,-0.45,-0.7,0.04,0.83
5.44,-0.48,-0.73,0.27,0.92
5.45,-0.53,-0.72,0.4,0.98
5.46,-0.55,-0.75,0.45,1.03
5.47,-0.57,-0.75,0.44,1.04
5.48,-0.65,-0.77,0.41,1.08
5.49,-0.72,-0.76,0.4,1.12
5.5,-0.7,-0.69,0.35,1.04
5.51,-0.68,-0.58,0.21,0.92
5.52,-0.69,-0.49,0.09,0.86
5.53,-0.73,-0.41,-0.0,0.83
5.541,-0.67,-0.22,-0.08,0.71
5.551,-0.57,-0.0,-0.18,0.59
5.561,-0.53,0.09,-0.3,0.61
5.571,-0.57,0.09,-0.37,0.68
5.581,-0.54,0.14,-0.47,0.73
5.591,-0.41,0.29,-0.58,0.77
5.601,-0.31,0.42,-0.69,0.87
5.611,-0.28,0.42,-0.71,0.88
5.621,-0.28,0.39,-0.67,0.82
5.631,-0.25,0.38,-0.67,0.81
5.641,-0.21,0.35,-0.74,0.85
5.651,-0.13,0.32,-0.81,0.88
5.661,-0.1,0.37,-0.82,0.91
5.671,-0.07,0.49,-0.82,0.96
5.682,-0.04,0.6,-0.78,0.98
5.692,-0.03,0.74,-0.78,1.07
5.702,-0.0,0.87,-0.82,1.19
5.712,0.03,0.91,-0.86,1.25
5.722,-0.05,0.86,-0.9,1.25
5.732,-0.08,0.84,-0.87,1.21
5.742,-0.09,0.89,-0.7,1.13
5.752,-0.09,0.9,-0.53,1.05
5.762,-0.16,0.88,-0.28,0.94
5.772,-0.14,0.91,-0.01,0.92
5.782,-0.08,0.87,0.12,0.88
5.792,-0.11,0.78,0.2,0.81
5.802,-0.09,0.76,0.28,0.82
5.812,-0.1,0.79,0.33,0.86
5.823,-0.07,0.79,0.35,0.87
5.833,0.01,0.79,0.29,0.84
5.843,0.04,0.77,0.24,0.8
5.853,0.08,0.75,0.26,0.79
5.863,0.15,0.81,0.42,0.92
5.873,0.1,0.82,0.58,1.01
5.883,0.01,0.8,0.7,1.06
5.893,-0.04,0.85,0.74,1.12
5.903,0.01,0.99,0.61,1.16
5.913,0.08,1.13,0.39,1.2
5.923,0.02,1.08,0.23,1.1
5.933,-0.18,0.85,0.21,0.89
5.943,-0.33,0.67,0.29,0.8
5.954,-0.38,0.69,0.41,0.89
5.964,-0.42,0.82,0.63,1.12
5.974,-0.54,0.86,0.98,1.41
5.984,-0.77,0.63,1.41,1.73
5.994,-1.02,0.29,1.74,2.04
6.004,-1.13,-0.03,1.77,2.1
6.014,-1.07,-0.32,1.47,1.85
6.024,-0.9,-0.68,1.11,1.58
6.034,-0.75,-1.0,0.74,1.45
6.044,-0.59,-1.14,0.44,1.36
6.054,-0.54,-1.22,0.18,1.34
6.065,-0.54,-1.24,-0.09,1.36
6.074,-0.48,-1.09,-0.32,1.23
6.085,-0.49,-0.9,-0.44,1.12
6.095,-0.6,-0.81,-0.44,1.1
6.105,-0.78,-0.8,-0.37,1.18
6.115,-0.97,-0.76,-0.22,1.25
6.125,-1.03,-0.62,-0.07,1.21
6.135,-1.05,-0.48,0.04,1.15
6.145,-1.04,-0.49,0.27,1.18
6.155,-1.07,-0.72,0.42,1.36
6.165,-1.05,-1.1,0.38,1.56
6.175,-1.01,-1.42,0.22,1.76
6.185,-1.01,-1.6,0.06,1.89
6.195,-0.92,-1.64,-0.12,1.88
6.205,-0.8,-1.6,-0.26,1.81
6.216,-0.8,-1.56,-0.23,1.76
6.226,-0.88,-1.59,-0.07,1.82
6.236,-1.01,-1.63,0.15,1.92
6.246,-1.11,-1.57,0.35,1.95
6.256,-1.17,-1.46,0.44,1.92
6.266,-1.2,-1.3,0.51,1.84
6.276,-1.29,-1.16,0.69,1.86
6.286,-1.38,-1.15,1.03,2.07
6.296,-1.41,-1.26,1.34,2.32
6.306,-1.4,-1.41,1.43,2.45
6.316,-1.34,-1.52,1.28,2.4
6.326,-1.33,-1.62,1.0,2.32
6.336,-1.32,-1.63,0.65,2.2
6.346,-1.3,-1.56,0.36,2.07
6.357,-1.23,-1.39,0.2,1.87
6.366,-1.09,-1.2,0.14,1.63
6.377,-1.03,-1.15,0.13,1.55
6.387,-0.96,-1.11,0.17,1.47
6.397,-0.89,-1.07,0.23,1.41
6.407,-0.88,-1.08,0.28,1.42
6.417,-0.92,-1.06,0.28,1.43
6.427,-0.94,-0.96,0.3,1.37
6.437,-0.92,-0.84,0.31,1.28
6.447,-0.85,-0.75,0.27,1.16
6.457,-0.74,-0.67,0.17,1.01
6.467,-0.68,-0.55,0.14,0.89
6.478,-0.69,-0.48,0.16,0.86
6.487,-0.65,-0.51,0.09,0.83
6.498,-0.51,-0.52,0.01,0.72
6.508,-0.39,-0.51,0.02,0.64
6.518,-0.37,-0.53,0.15,0.66
6.528,-0.38,-0.59,0.27,0.75
6.538,-0.29,-0.63,0.27,0.74
6.548,-0.23,-0.58,0.33,0.71
6.558,-0.2,-0.57,0.42,0.74
6.568,-0.1,-0.61,0.47,0.77
6.578,-0.03,-0.64,0.54,0.84
6.588,-0.01,-0.62,0.64,0.89
6.598,-0.02,-0.6,0.71,0.93
6.608,-0.01,-0.56,0.77,0.95
6.618,-0.04,-0.56,0.84,1.01
6.628,-0.06,-0.6,0.89,1.07
6.639,-0.04,-0.62,0.9,1.09
6.649,-0.04,-0.65,0.87,1.09
6.659,-0.04,-0.69,0.86,1.1
6.669,-0.01,-0.73,0.85,1.12
6.679,-0.0,-0.81,0.84,1.17
6.689,0.02,-0.91,0.87,1.26
6.699,0.01,-1.03,0.9,1.37
6.709,0.05,-1.15,0.84,1.43
6.719,0.14,-1.26,0.72,1.46
6.729,0.21,-1.32,0.6,1.47
6.739,0.3,-1.37,0.52,1.5
6.749,0.36,-1.4,0.5,1.53
6.759,0.38,-1.43,0.51,1.56
6.77,0.33,-1.42,0.56,1.56
6.779,0.24,-1.23,0.67,1.42
6.79,0.07,-1.0,0.79,1.28
6.8,-0.11,-0.85,0.94,1.27
6.81,-0.28,-0.77,1.03,1.32
6.82,-0.41,-0.81,0.94,1.31
6.83,-0.46,-0.89,0.77,1.26
6.84,-0.41,-1.02,0.52,1.22
6.85,-0.39,-1.19,0.26,1.28
6.86,-0.33,-1.27,0.02,1.31
6.87,-0.3,-1.25,-0.15,1.3
6.88,-0.29,-1.22,-0.23,1.27
6.89,-0.31,-1.21,-0.2,1.27
6.901,-0.35,-1.23,-0.14,1.29
6.91,-0.37,-1.26,-0.05,1.32
6.921,-0.4,-1.28,0.04,1.34
6.931,-0.41,-1.22,0.08,1.29
6.941,-0.39,-1.15,0.13,1.22
6.951,-0.38,-1.08,0.19,1.16
6.961,-0.37,-0.96,0.3,1.07
6.971,-0.44,-0.85,0.4,1.03
6.981,-0.53,-0.8,0.45,1.06
6.991,-0.59,-0.72,0.45,1.03
7.001,-0.58,-0.56,0.38,0.89
7.011,-0.56,-0.43,0.33,0.78
7.021,-0.55,-0.37,0.31,0.73
7.032,-0.58,-0.36,0.32,0.76
7.042,-0.62,-0.46,0.26,0.82
7.051,-0.59,-0.49,0.25,0.8
7.061,-0.55,-0.46,0.36,0.81
7.072,-0.59,-0.45,0.59,0.95
7.082,-0.59,-0.4,0.83,1.1
7.092,-0.63,-0.34,1.05,1.27
7.102,-0.68,-0.33,1.12,1.35
7.112,-0.67,-0.34,1.01,1.26
7.122,-0.63,-0.33,0.79,1.06
7.132,-0.59,-0.32,0.48,0.82
7.142,-0.51,-0.31,0.18,0.62
7.152,-0.43,-0.27,-0.07,0.51
7.162,-0.32,-0.17,-0.29,0.46
7.172,-0.26,-0.07,-0.4,0.48
7.183,-0.17,0.04,-0.43,0.47
7.193,-0.1,0.14,-0.41,0.45
7.203,-0.06,0.2,-0.37,0.43
7.213,-0.04,0.23,-0.38,0.45
7.223,0.02,0.25,-0.43,0.5
7.233,0.1,0.29,-0.56,0.64
7.243,0.13,0.32,-0.64,0.73
7.253,0.12,0.33,-0.65,0.75
7.263,0.18,0.37,-0.69,0.81
7.273,0.26,0.44,-0.66,0.84
7.283,0.34,0.51,-0.6,0.85
7.293,0.41,0.52,-0.52,0.84
7.303,0.46,0.5,-0.45,0.81
7.313,0.5,0.53,-0.37,0.82
7.323,0.51,0.61,-0.27,0.84
7.334,0.5,0.69,-0.2,0.87
7.344,0.59,0.73,-0.24,0.97
7.354,0.67,0.71,-0.26,1.01
7.364,0.65,0.62,-0.17,0.91
7.374,0.55,0.49,0.07,0.74
7.384,0.34,0.32,0.44,0.63
7.394,0.32,0.29,0.54,0.69
7.404,0.5,0.37,0.28,0.68
7.414,0.75,0.71,-0.1,1.04
7.425,0.84,1.13,-0.3,1.44
7.434,0.82,1.42,-0.51,1.72
7.445,0.78,1.51,-0.59,1.8
7.455,0.73,1.48,-0.61,1.76
7.465,0.63,1.43,-0.52,1.65
7.475,0.48,1.33,-0.28,1.44
7.485,0.37,1.22,-0.15,1.28
7.495,0.38,1.11,-0.11,1.18
7.505,0.38,1.06,-0.04,1.13
7.515,0.28,0.98,0.07,1.02
7.525,0.2,0.93,0.06,0.96
7.535,0.2,0.97,-0.09,0.99
7.545,0.21,1.0,-0.32,1.07
7.555,0.17,0.96,-0.4,1.05
7.565,0.09,0.8,-0.29,0.85
7.575,0.11,0.63,-0.14,0.65
7.586,0.21,0.56,0.04,0.6
7.595,0.24,0.6,0.23,0.69
7.605,0.25,0.63,0.47,0.82
7.616,0.21,0.59,0.65,0.91
7.626,0.13,0.51,0.8,0.95
7.636,-0.01,0.43,0.87,0.97
7.646,-0.11,0.33,0.81,0.88
7.656,-0.16,0.22,0.66,0.71
7.666,-0.09,0.22,0.5,0.56
7.676,-0.0,0.25,0.42,0.49
7.686,0.14,0.2,0.32,0.4
7.696,0.3,0.14,0.27,0.43
7.706,0.41,0.06,0.29,0.5
7.717,0.45,-0.11,0.35,0.58
7.726,0.46,-0.33,0.37,0.68
7.737,0.39,-0.49,0.36,0.72
7.747,0.34,-0.55,0.33,0.73
7.757,0.19,-0.62,0.33,0.73
7.767,0.13,-0.67,0.31,0.75
7.777,0.05,-0.72,0.36,0.8
7.787,-0.04,-0.82,0.39,0.91
7.797,-0.2,-1.02,0.41,1.12
7.807,-0.26,-1.2,0.43,1.3
7.817,-0.03,-1.12,0.34,1.17
7.827,0.03,-1.01,0.19,1.03
7.837,0.08,-0.96,0.06,0.97
7.848,0.14,-0.88,-0.04,0.89
7.857,0.24,-0.8,-0.19,0.86
7.867,0.38,-0.68,-0.32,0.85
7.877,0.51,-0.54,-0.4,0.85
7.888,0.59,-0.37,-0.42,0.81
7.898,0.64,-0.22,-0.36,0.77
7.908,0.6,-0.17,-0.27,0.68
7.918,0.51,-0.18,-0.13,0.56
7.928,0.4,-0.17,0.02,0.44
7.938,0.37,-0.15,0.12,0.42
7.948,0.4,-0.15,0.12,0.45
7.958,0.47,-0.15,-0.01,0.49
7.968,0.5,-0.14,-0.2,0.56
7.978,0.45,-0.17,-0.37,0.61
7.988,0.38,-0.21,-0.51,0.67
7.999,0.48,-0.14,-0.66,0.83
8.009,0.57,-0.02,-0.67,0.88
8.019,0.66,0.18,-0.55,0.88
8.029,0.55,0.2,-0.37,0.7
8.039,0.51,0.2,-0.28,0.61
8.049,0.5,0.19,-0.2,0.57
8.059,0.47,0.17,-0.21,0.54
8.069,0.41,0.1,-0.28,0.51
8.079,0.35,0.04,-0.4,0.54
8.089,0.42,0.06,-0.62,0.75
8.099,0.53,0.14,-0.88,1.04
8.109,0.6,0.23,-1.08,1.26
8.119,0.6,0.38,-1.18,1.37
8.129,0.55,0.56,-1.2,1.44
8.139,0.4,0.72,-1.13,1.4
8.149,0.35,0.92,-1.11,1.48
8.159,0.33,1.16,-1.03,1.59
8.17,0.28,1.32,-0.85,1.59
8.18,0.24,1.31,-0.68,1.5
8.19,0.21,1.24,-0.52,1.36
8.2,0.15,1.14,-0.44,1.23
8.21,0.12,1.01,-0.47,1.12
8.22,0.2,0.93,-0.58,1.11
8.23,0.3,0.89,-0.63,1.13
8.24,0.39,0.92,-0.63,1.18
8.25,0.52,1.0,-0.64,1.29
8.261,0.6,1.12,-0.59,1.41
8.27,0.66,1.31,-0.4,1.52
8.28,0.64,1.46,-0.08,1.59
8.291,0.57,1.53,0.29,1.66
8.301,0.53,1.5,0.51,1.67
8.311,0.46,1.29,0.47,1.45
8.321,0.4,1.01,0.38,1.15
8.331,0.28,0.77,0.46,0.94
8.341,0.25,0.67,0.69,0.99
8.351,0.28,0.67,0.87,1.13
8.361,0.36,0.69,0.93,1.21
8.371,0.46,0.72,0.83,1.19
8.381,0.49,0.72,0.77,1.16
8.391,0.38,0.75,0.86,1.2
8.401,0.27,0.74,0.98,1.26
8.412,0.2,0.59,1.11,1.27
8.422,-0.0,0.3,1.31,1.34
8.432,-0.25,-0.01,1.6,1.62
8.442,-0.56,-0.31,1.73,1.85
8.452,-0.71,-0.59,1.59,1.84
8.462,-0.65,-0.71,1.14,1.5
8.472,-0.62,-0.75,0.64,1.17
8.482,-0.61,-0.73,0.31,0.99
8.492,-0.6,-0.63,0.09,0.88
8.502,-0.62,-0.58,-0.02,0.85
8.512,-0.55,-0.57,-0.02,0.79
8.523,-0.58,-0.64,0.12,0.87
8.532,-0.68,-0.81,0.33,1.11
8.542,-0.79,-0.99,0.48,1.35
8.552,-0.85,-1.1,0.51,1.48
8.563,-0.92,-1.18,0.37,1.54
8.573,-0.93,-1.21,0.09,1.53
8.583,-0.89,-1.15,-0.15,1.46
8.593,-0.85,-1.05,-0.27,1.38
8.603,-0.8,-0.99,-0.31,1.31
8.613,-0.76,-0.94,-0.25,1.24
8.623,-0.71,-0.87,-0.18,1.14
8.633,-0.65,-0.76,-0.18,1.01
8.643,-0.55,-0.64,-0.25,0.89
8.653,-0.5,-0.55,-0.36,0.83
8.663,-0.48,-0.58,-0.43,0.87
8.673,-0.45,-0.64,-0.42,0.89
8.684,-0.44,-0.64,-0.35,0.85
8.693,-0.39,-0.61,-0.31,0.79
8.704,-0.35,-0.56,-0.25,0.71
8.714,-0.42,-0.51,-0.2,0.7
8.724,-0.44,-0.46,-0.21,0.67
8.734,-0.42,-0.39,-0.27,0.63
8.744,-0.41,-0.38,-0.31,0.64
8.754,-0.4,-0.4,-0.29,0.63
8.764,-0.45,-0.44,-0.19,0.66
8.774,-0.47,-0.43,-0.08,0.64
8.784,-0.37,-0.28,-0.01,0.46
8.794,-0.34,-0.01,-0.04,0.34
8.804,-0.23,0.26,-0.13,0.37
8.814,-0.25,0.38,-0.21,0.5
8.825,-0.28,0.38,-0.28,0.55
8.835,-0.28,0.36,-0.39,0.61
8.845,-0.33,0.31,-0.45,0.63
8.855,-0.37,0.28,-0.45,0.65
8.865,-0.34,0.31,-0.46,0.65
8.875,-0.32,0.36,-0.42,0.64
8.885,-0.24,0.45,-0.32,0.6
8.895,-0.24,0.43,-0.27,0.56
8.905,-0.21,0.36,-0.28,0.5
8.915,-0.15,0.41,-0.28,0.52
8.925,-0.11,0.51,-0.29,0.6
8.935,-0.07,0.56,-0.34,0.66
8.945,-0.05,0.61,-0.37,0.71
8.955,-0.09,0.6,-0.36,0.71
8.966,-0.09,0.6,-0.33,0.69
8.976,-0.08,0.59,-0.29,0.66
8.986,-0.13,0.58,-0.26,0.65
8.996,-0.17,0.57,-0.25,0.65
9.006,-0.19,0.52,-0.28,0.62
9.016,-0.22,0.47,-0.18,0.55
9.026,-0.31,0.4,0.02,0.5
9.036,-0.37,0.34,0.12,0.52
9.046,-0.41,0.38,0.13,0.58
9.056,-0.44,0.52,0.13,0.69
9.066,-0.48,0.66,0.21,0.84
9.076,-0.49,0.71,0.37,0.94
9.086,-0.52,0.58,0.49,0.92
9.096,-0.55,0.4,0.59,0.9
9.107,-0.52,0.32,0.58,0.84
9.116,-0.54,0.32,0.5,0.8
9.127,-0.5,0.45,0.35,0.76
9.137,-0.43,0.58,0.13,0.74
9.147,-0.34,0.62,0.0,0.71
9.157,-0.31,0.56,0.08,0.65
9.167,-0.4,0.33,0.29,0.6
9.177,-0.4,0.1,0.55,0.69
9.187,-0.39,-0.05,0.71,0.81
9.197,-0.43,-0.15,0.74,0.87
9.207,-0.47,-0.17,0.72,0.88
9.217,-0.49,-0.21,0.61,0.81
9.227,-0.44,-0.28,0.42,0.67
9.237,-0.4,-0.33,0.21,0.56
9.247,-0.4,-0.34,0.08,0.53
9.258,-0.28,-0.25,-0.08,0.38
9.268,-0.09,-0.13,-0.21,0.26
9.278,0.01,-0.13,-0.24,0.27
9.288,0.02,-0.3,-0.07,0.31
9.298,-0.03,-0.54,0.18,0.57
9.308,-0.1,-0.72,0.34,0.81
9.318,-0.12,-0.69,0.47,0.84
9.328,-0.16,-0.6,0.52,0.81
9.338,-0.14,-0.5,0.52,0.74
9.348,-0.16,-0.51,0.45,0.7
9.358,-0.21,-0.61,0.37,0.75
9.368,-0.3,-0.81,0.29,0.91
9.379,-0.42,-1.07,0.26,1.18
9.389,-0.46,-1.32,0.23,1.41
9.399,-0.38,-1.53,0.13,1.58
9.409,-0.21,-1.59,0.04,1.61
9.419,-0.03,-1.39,-0.02,1.39
9.429,0.08,-1.12,-0.1,1.13
9.439,0.19,-0.8,-0.17,0.83
9.449,0.17,-0.61,-0.26,0.69
9.459,0.17,-0.55,-0.32,0.65
9.469,0.27,-0.45,-0.44,0.69
9.479,0.36,-0.38,-0.61,0.8
9.49,0.39,-0.43,-0.69,0.9
9.499,0.42,-0.54,-0.69,0.97
9.509,0.42,-0.67,-0.57,0.97
9.52,0.4,-0.84,-0.33,0.98
9.53,0.43,-0.98,-0.03,1.07
9.54,0.45,-0.99,0.26,1.12
9.55,0.46,-0.89,0.52,1.13
9.56,0.43,-0.74,0.69,1.1
9.57,0.39,-0.65,0.76,1.08
9.58,0.4,-0.6,0.83,1.1
9.59,0.35,-0.57,0.92,1.14
9.6,0.3,-0.62,0.92,1.15
9.61,0.32,-0.63,0.83,1.09
9.62,0.3,-0.65,0.67,0.98
9.631,0.28,-0.77,0.49,0.96
9.64,0.29,-0.84,0.27,0.93
9.65,0.36,-0.71,0.03,0.8
9.661,0.36,-0.52,-0.03,0.63
9.671,0.3,-0.39,0.08,0.5
9.681,0.28,-0.32,0.19,0.47
9.691,0.34,-0.23,0.23,0.47
9.701,0.36,-0.16,0.22,0.45
9.711,0.38,-0.16,0.17,0.44
9.721,0.29,-0.22,0.15,0.4
9.732,0.27,-0.22,0.15,0.38
9.741,0.25,-0.13,0.17,0.33
9.751,0.17,-0.12,0.25,0.32
9.761,0.12,-0.18,0.34,0.41
9.771,0.13,-0.3,0.37,0.49
9.781,0.1,-0.38,0.44,0.59
9.792,0.08,-0.38,0.5,0.63
9.802,0.09,-0.33,0.48,0.59
9.812,0.08,-0.22,0.41,0.47
9.822,0.08,-0.11,0.32,0.34
9.832,0.1,-0.03,0.21,0.24
9.842,0.16,0.03,0.08,0.18
9.852,0.17,0.03,-0.11,0.2
9.862,0.19,-0.03,-0.22,0.29
9.872,0.23,0.03,-0.28,0.36
9.882,0.23,0.06,-0.29,0.38
9.892,0.22,0.08,-0.21,0.31
9.902,0.23,0.09,-0.09,0.26
9.912,0.17,0.07,0.06,0.2
9.922,0.17,0.02,0.03,0.17
9.933,0.18,-0.0,-0.15,0.24
9.943,0.18,0.06,-0.25,0.31
9.953,0.16,0.19,-0.26,0.36
9.963,0.17,0.27,-0.15,0.36
9.973,0.11,0.18,0.09,0.23
9.983,0.04,-0.03,0.24,0.24
9.993,0.06,-0.19,0.28,0.34
10.003,0.04,-0.2,0.31,0.37
10.013,0.01,-0.19,0.28,0.34
10.023,-0.02,-0.12,0.22,0.25
10.033,-0.06,-0.01,0.18,0.19
10.043,0.05,0.13,0.13,0.19
10.053,0.09,0.19,0.03,0.21
10.063,0.14,0.15,-0.05,0.21
10.074,0.14,0.09,-0.08,0.19
10.084,0.0,-0.02,0.07,0.07
10.094,-0.11,-0.08,0.26,0.3
10.104,-0.31,-0.2,0.62,0.72
10.114,-0.3,-0.23,0.99,1.06
10.124,-0.35,-0.26,0.85,0.96
10.134,-0.3,-0.33,0.48,0.65
10.144,0.11,-0.04,-1.25,1.26
10.154,0.63,0.39,-1.71,1.86
10.164,-0.12,0.22,-1.14,1.17
10.174,-0.22,-0.03,-0.73,0.76
10.184,0.06,0.04,-0.49,0.49
10.194,-0.02,-0.15,-0.07,0.17
10.205,-0.01,-0.43,0.23,0.49
10.215,0.01,-0.55,0.52,0.76
10.225,-0.02,-0.39,0.67,0.77
10.235,0.01,-0.04,0.72,0.72
10.245,-0.03,0.11,0.56,0.57
10.255,-0.02,0.16,0.22,0.27
10.265,0.09,0.23,-0.43,0.5
10.275,0.11,0.09,-0.86,0.88
10.285,0.17,-0.02,-0.78,0.8
10.295,0.08,-0.14,-0.49,0.52
