time,ax,ay,az,atotal
0.0,-0.14,0.27,-0.27,0.4
0.01,-0.14,0.34,-0.22,0.43
0.02,-0.22,0.39,-0.11,0.46
0.03,-0.29,0.38,-0.12,0.49
0.04,-0.35,0.31,-0.05,0.47
0.05,-0.43,0.19,0.06,0.48
0.06,-0.51,0.14,0.09,0.54
0.071,-0.55,0.14,0.07,0.57
0.081,-0.58,0.15,-0.05,0.6
0.091,-0.59,0.19,-0.2,0.65
0.101,-0.59,0.22,-0.25,0.68
0.111,-0.54,0.19,-0.32,0.66
0.121,-0.49,0.19,-0.36,0.63
0.131,-0.42,0.19,-0.36,0.58
0.141,-0.36,0.24,-0.28,0.52
0.151,-0.31,0.27,-0.17,0.44
0.161,-0.29,0.21,-0.09,0.37
0.171,-0.22,0.15,-0.1,0.29
0.181,-0.19,0.09,-0.03,0.21
0.191,-0.17,0.02,0.02,0.17
0.202,-0.2,-0.03,0.11,0.23
0.212,-0.21,-0.03,0.14,0.25
0.222,-0.23,0.03,0.11,0.26
0.232,-0.24,0.11,0.07,0.27
0.242,-0.25,0.19,0.04,0.32
0.252,-0.27,0.29,0.03,0.4
0.262,-0.29,0.34,0.04,0.45
0.272,-0.26,0.3,-0.01,0.4
0.282,-0.23,0.22,-0.03,0.32
0.292,-0.2,0.19,-0.11,0.29
0.302,-0.1,0.15,-0.29,0.34
0.312,0.0,0.08,-0.45,0.46
0.322,0.08,0.02,-0.51,0.51
0.332,0.12,0.03,-0.46,0.47
0.343,0.11,0.02,-0.33,0.35
0.353,0.09,0.13,0.13,0.2
0.363,-0.03,-0.13,-0.46,0.48
0.373,0.07,-0.3,-0.63,0.7
0.383,0.11,-0.18,-0.39,0.44
0.393,0.19,-0.05,-0.26,0.32
0.403,0.34,-0.02,-0.36,0.5
0.413,0.45,0.05,-0.47,0.65
0.423,0.38,0.2,-0.12,0.45
0.433,0.51,0.5,-0.11,0.73
0.443,0.56,0.68,-0.16,0.9
0.453,0.42,0.73,0.15,0.86
0.463,0.31,0.79,0.48,0.97
0.473,0.29,0.85,0.65,1.11
0.484,0.35,0.92,0.66,1.19
0.494,0.39,0.91,0.41,1.07
0.504,0.46,0.84,0.19,0.98
0.514,0.47,0.76,0.06,0.89
0.524,0.5,0.65,-0.04,0.82
0.534,0.51,0.62,-0.06,0.81
0.544,0.45,0.62,0.01,0.76
0.554,0.39,0.61,0.1,0.73
0.564,0.33,0.63,0.22,0.74
0.574,0.21,0.67,0.32,0.77
0.584,0.09,0.69,0.33,0.77
0.594,0.05,0.7,0.14,0.71
0.604,0.04,0.65,-0.13,0.67
0.614,0.1,0.59,-0.44,0.75
0.625,0.16,0.59,-0.65,0.89
0.635,0.14,0.63,-0.67,0.93
0.645,0.07,0.67,-0.68,0.96
0.655,0.01,0.69,-0.69,0.98
0.665,-0.01,0.74,-0.69,1.01
0.675,-0.01,0.81,-0.65,1.04
0.685,-0.0,0.88,-0.58,1.06
0.695,-0.02,0.94,-0.49,1.06
0.705,-0.03,0.94,-0.44,1.04
0.715,0.01,0.92,-0.39,1.0
0.725,0.01,0.93,-0.26,0.97
0.735,-0.04,0.89,-0.11,0.9
0.745,-0.03,0.82,0.01,0.82
0.756,0.01,0.8,0.04,0.81
0.766,0.03,0.77,0.02,0.77
0.776,0.03,0.69,-0.11,0.7
0.786,0.06,0.65,-0.29,0.71
0.796,0.11,0.66,-0.45,0.8
0.806,0.19,0.72,-0.52,0.91
0.816,0.25,0.81,-0.49,0.98
0.826,0.29,0.86,-0.41,1.0
0.836,0.3,0.87,-0.26,0.96
0.846,0.24,0.78,-0.12,0.82
0.856,0.2,0.58,0.02,0.62
0.866,0.16,0.34,0.07,0.38
0.876,0.14,0.15,0.13,0.24
0.886,0.14,0.13,0.2,0.27
0.897,0.15,0.2,0.17,0.31
0.907,0.24,0.37,0.09,0.45
0.917,0.42,0.58,-0.02,0.72
0.927,0.45,0.8,-0.1,0.93
0.937,0.66,1.06,-0.06,1.25
0.947,0.64,1.02,-0.07,1.2
0.957,0.54,0.78,-0.01,0.95
0.967,0.37,0.62,0.17,0.74
0.977,0.22,0.52,0.27,0.62
0.987,0.09,0.47,0.26,0.55
0.997,0.02,0.42,0.24,0.48
1.007,-0.0,0.26,0.11,0.28
1.018,0.03,0.11,-0.04,0.12
1.027,0.01,-0.03,-0.17,0.17
1.038,0.08,-0.2,-0.27,0.35
1.048,0.14,-0.38,-0.27,0.49
1.058,0.09,-0.48,-0.15,0.51
1.068,0.1,-0.49,-0.07,0.51
1.078,0.13,-0.46,-0.02,0.48
1.088,0.13,-0.36,0.13,0.41
1.098,0.09,-0.21,0.17,0.29
1.108,0.02,-0.08,0.22,0.23
1.118,-0.1,-0.04,0.34,0.35
1.128,-0.21,-0.05,0.44,0.49
1.138,-0.36,-0.16,0.5,0.64
1.148,-0.45,-0.29,0.5,0.73
1.158,-0.46,-0.35,0.45,0.73
1.169,-0.43,-0.38,0.39,0.7
1.179,-0.4,-0.44,0.32,0.68
1.189,-0.41,-0.54,0.31,0.74
1.199,-0.41,-0.64,0.25,0.81
1.209,-0.36,-0.73,0.12,0.83
1.219,-0.25,-0.77,-0.02,0.81
1.229,-0.17,-0.75,-0.14,0.79
1.239,-0.12,-0.71,-0.2,0.75
1.249,-0.15,-0.67,-0.2,0.72
1.259,-0.26,-0.64,-0.19,0.72
1.269,-0.25,-0.58,-0.29,0.7
1.279,-0.15,-0.49,-0.48,0.7
1.289,-0.11,-0.41,-0.56,0.7
1.3,-0.14,-0.37,-0.57,0.69
1.31,-0.2,-0.33,-0.5,0.63
1.32,-0.27,-0.28,-0.38,0.54
1.33,-0.3,-0.19,-0.23,0.43
1.34,-0.29,-0.11,-0.12,0.33
1.35,-0.33,-0.1,-0.0,0.34
1.36,-0.38,-0.19,0.07,0.43
1.37,-0.45,-0.33,0.14,0.57
1.38,-0.39,-0.34,0.16,0.54
1.39,-0.35,-0.17,0.08,0.39
1.4,-0.39,-0.16,-0.03,0.42
1.41,-0.41,-0.43,-0.15,0.61
1.42,-0.45,-0.7,-0.31,0.89
1.431,-0.45,-0.8,-0.53,1.06
1.441,-0.33,-0.7,-0.72,1.06
1.451,-0.14,-0.42,-0.83,0.95
1.461,-0.01,-0.14,-0.84,0.86
1.471,0.06,0.09,-0.75,0.75
1.481,0.09,0.31,-0.64,0.72
1.491,0.1,0.5,-0.58,0.77
1.501,0.04,0.66,-0.55,0.86
1.511,0.01,0.86,-0.54,1.02
1.521,0.04,1.05,-0.51,1.17
1.531,0.08,1.15,-0.53,1.27
1.541,0.12,1.15,-0.49,1.26
1.551,0.11,1.1,-0.41,1.17
1.562,0.11,1.02,-0.32,1.08
1.571,0.08,0.91,-0.29,0.96
1.582,0.03,0.83,-0.23,0.86
1.592,0.02,0.84,-0.19,0.86
1.602,0.03,0.9,-0.16,0.91
1.612,0.07,0.95,-0.16,0.97
1.622,0.11,1.0,-0.14,1.02
1.632,0.11,0.98,-0.09,0.99
1.642,0.08,0.96,-0.07,0.96
1.652,0.09,0.98,-0.14,0.99
1.662,0.13,0.99,-0.23,1.03
1.672,0.19,1.0,-0.32,1.07
1.682,0.21,0.98,-0.39,1.07
1.692,0.11,0.9,-0.27,0.94
1.703,0.01,0.87,-0.06,0.87
1.712,-0.0,0.86,0.09,0.87
1.723,0.13,0.86,0.09,0.87
1.733,0.27,0.89,0.06,0.93
1.743,0.34,0.85,0.06,0.92
1.753,0.35,0.72,0.17,0.81
1.763,0.34,0.7,0.38,0.87
1.773,0.34,0.8,0.69,1.11
1.783,0.33,0.9,1.07,1.43
1.793,0.21,0.84,1.42,1.66
1.803,0.03,0.54,1.63,1.72
1.813,-0.03,0.19,1.74,1.75
1.823,-0.1,-0.13,1.72,1.73
1.833,-0.14,-0.34,1.55,1.59
1.843,-0.14,-0.44,1.27,1.35
1.854,-0.13,-0.48,0.83,0.97
1.864,-0.08,-0.46,0.35,0.59
1.874,-0.08,-0.45,-0.03,0.46
1.884,-0.12,-0.47,-0.27,0.55
1.894,-0.13,-0.42,-0.46,0.63
1.904,-0.13,-0.35,-0.53,0.64
1.914,-0.2,-0.4,-0.5,0.67
1.924,-0.28,-0.5,-0.46,0.74
1.934,-0.31,-0.61,-0.36,0.77
1.944,-0.26,-0.68,-0.24,0.77
1.955,-0.27,-0.74,-0.09,0.8
1.964,-0.3,-0.75,0.08,0.81
1.975,-0.29,-0.66,0.17,0.74
1.984,-0.23,-0.52,0.21,0.61
1.995,-0.16,-0.4,0.24,0.49
2.005,-0.05,-0.31,0.17,0.36
2.015,0.07,-0.3,0.04,0.31
2.025,0.18,-0.35,-0.13,0.42
2.035,0.34,-0.43,-0.32,0.63
2.045,0.5,-0.42,-0.44,0.79
2.055,0.58,-0.34,-0.47,0.82
2.065,0.6,-0.31,-0.37,0.77
2.075,0.57,-0.31,-0.17,0.67
2.085,0.5,-0.34,0.12,0.62
2.095,0.44,-0.39,0.41,0.72
2.105,0.36,-0.48,0.67,0.9
2.116,0.28,-0.59,0.84,1.06
2.126,0.23,-0.62,0.89,1.11
2.136,0.19,-0.56,0.84,1.03
2.146,0.19,-0.43,0.69,0.83
2.156,0.23,-0.26,0.47,0.59
2.166,0.21,-0.13,0.23,0.34
2.176,0.16,-0.04,-0.01,0.16
2.186,0.14,0.01,-0.22,0.26
2.196,0.17,0.01,-0.35,0.39
2.206,0.21,-0.03,-0.39,0.44
2.216,0.24,-0.1,-0.34,0.43
2.226,0.27,-0.13,-0.24,0.38
2.237,0.28,-0.09,-0.13,0.32
2.246,0.26,-0.03,-0.05,0.26
2.256,0.23,0.01,-0.08,0.24
2.267,0.25,0.05,-0.23,0.34
2.277,0.25,0.13,-0.38,0.47
2.287,0.23,0.23,-0.45,0.56
2.297,0.21,0.27,-0.51,0.61
2.307,0.19,0.29,-0.5,0.61
2.317,0.15,0.33,-0.51,0.63
2.327,0.12,0.45,-0.51,0.69
2.337,0.12,0.58,-0.58,0.83
2.347,0.14,0.74,-0.7,1.02
2.357,0.07,0.92,-0.75,1.19
2.368,0.04,1.09,-0.85,1.38
2.377,0.1,1.09,-1.04,1.51
2.388,0.21,0.87,-1.21,1.51
2.398,0.29,0.56,-1.28,1.43
2.408,0.39,0.35,-1.26,1.36
2.418,0.43,0.23,-1.11,1.21
2.428,0.4,0.18,-0.91,1.01
2.438,0.37,0.15,-0.69,0.8
2.448,0.36,0.13,-0.43,0.57
2.458,0.28,0.15,-0.15,0.35
2.468,0.22,0.26,0.17,0.38
2.478,0.23,0.41,0.49,0.68
2.488,0.31,0.58,0.75,0.99
2.498,0.38,0.71,0.89,1.2
2.508,0.43,0.75,0.92,1.26
2.519,0.45,0.75,0.97,1.3
2.528,0.44,0.78,1.05,1.38
2.539,0.43,0.84,1.08,1.43
2.549,0.5,0.86,1.0,1.41
2.559,0.46,0.83,0.98,1.37
2.569,0.26,0.74,1.12,1.37
2.579,-0.01,0.58,1.32,1.44
2.589,-0.26,0.4,1.46,1.54
2.599,-0.45,0.25,1.48,1.57
2.609,-0.64,0.09,1.44,1.58
2.619,-0.78,-0.15,1.26,1.49
2.629,-0.82,-0.43,0.93,1.32
2.64,-0.76,-0.65,0.61,1.17
2.649,-0.65,-0.81,0.38,1.11
2.66,-0.56,-0.98,0.3,1.17
2.669,-0.53,-1.14,0.31,1.3
2.68,-0.47,-1.26,0.32,1.39
2.69,-0.39,-1.36,0.21,1.43
2.7,-0.39,-1.41,-0.03,1.47
2.71,-0.36,-1.37,-0.27,1.44
2.72,-0.38,-1.32,-0.5,1.46
2.73,-0.36,-1.31,-0.75,1.55
2.74,-0.26,-1.3,-1.02,1.67
2.75,-0.16,-1.22,-1.17,1.7
2.76,-0.13,-1.16,-1.11,1.61
2.77,-0.13,-1.16,-1.0,1.54
2.781,-0.1,-1.15,-0.91,1.47
2.79,-0.12,-1.02,-0.83,1.32
2.8,-0.1,-0.9,-0.74,1.17
2.81,-0.08,-0.88,-0.59,1.06
2.821,-0.18,-0.89,-0.38,0.98
2.831,-0.29,-0.88,-0.12,0.94
2.841,-0.42,-0.84,0.13,0.95
2.851,-0.52,-0.82,0.29,1.01
2.861,-0.59,-0.78,0.42,1.06
2.871,-0.76,-0.76,0.52,1.19
2.881,-0.89,-0.73,0.52,1.27
2.891,-0.84,-0.68,0.45,1.17
2.901,-0.79,-0.7,0.37,1.12
2.911,-0.8,-0.75,0.29,1.14
2.921,-0.84,-0.8,0.23,1.18
2.932,-0.87,-0.84,0.11,1.21
2.941,-0.95,-0.84,0.04,1.27
2.952,-0.93,-0.72,-0.14,1.18
2.962,-0.71,-0.46,-0.52,0.99
2.972,-0.46,-0.09,-0.83,0.96
2.982,-0.17,0.3,-1.03,1.09
2.992,0.02,0.53,-1.18,1.3
3.002,0.05,0.6,-1.24,1.38
3.012,0.08,0.62,-1.2,1.35
3.022,0.07,0.66,-1.08,1.27
3.032,-0.01,0.7,-0.83,1.08
3.042,-0.05,0.75,-0.59,0.96
3.053,-0.02,0.81,-0.4,0.9
3.063,0.03,0.86,-0.18,0.87
3.072,0.06,0.88,0.04,0.88
3.083,0.1,0.86,0.11,0.87
3.093,0.15,0.83,0.03,0.84
3.103,0.17,0.8,-0.05,0.82
3.113,0.15,0.8,-0.08,0.81
3.123,0.12,0.76,-0.06,0.77
3.133,0.1,0.73,0.02,0.73
3.143,0.05,0.79,0.17,0.81
3.153,-0.04,0.9,0.34,0.96
3.163,0.02,1.01,0.43,1.09
3.174,0.08,1.11,0.39,1.18
3.183,0.12,1.18,0.3,1.23
3.193,0.15,1.23,0.23,1.26
3.203,0.16,1.22,0.13,1.24
3.214,0.19,1.12,-0.04,1.14
3.223,0.19,1.05,-0.17,1.08
3.234,0.22,1.07,-0.22,1.12
3.244,0.26,1.08,-0.33,1.16
3.254,0.3,1.06,-0.42,1.18
3.264,0.3,1.06,-0.34,1.15
3.274,0.29,1.05,-0.18,1.11
3.284,0.23,0.95,0.0,0.98
3.294,0.15,0.83,0.18,0.87
3.304,0.14,0.75,0.36,0.84
3.314,0.14,0.75,0.54,0.93
3.324,0.14,0.74,0.63,0.98
3.334,0.28,0.78,0.53,0.99
3.345,0.45,0.85,0.38,1.03
3.355,0.49,0.89,0.39,1.09
3.365,0.48,0.87,0.48,1.1
3.375,0.37,0.92,0.62,1.17
3.385,0.27,1.04,0.86,1.38
3.395,0.15,1.11,1.18,1.62
3.405,-0.03,1.03,1.56,1.87
3.415,-0.25,0.81,1.99,2.16
3.425,-0.42,0.51,2.38,2.47
3.435,-0.55,0.19,2.59,2.66
3.445,-0.63,-0.13,2.59,2.67
3.455,-0.65,-0.45,2.27,2.41
3.466,-0.63,-0.76,1.73,1.99
3.475,-0.54,-0.95,1.05,1.51
3.485,-0.39,-1.0,0.42,1.15
3.496,-0.33,-1.0,-0.0,1.06
3.506,-0.29,-1.01,-0.27,1.08
3.516,-0.26,-0.98,-0.42,1.1
3.526,-0.36,-0.95,-0.46,1.12
3.536,-0.5,-1.01,-0.48,1.23
3.546,-0.59,-1.07,-0.54,1.34
3.556,-0.67,-1.13,-0.59,1.44
3.566,-0.69,-1.18,-0.69,1.53
3.576,-0.63,-1.18,-0.86,1.59
3.586,-0.57,-1.13,-1.07,1.65
3.597,-0.47,-1.07,-1.24,1.7
3.606,-0.39,-1.02,-1.41,1.78
3.616,-0.28,-0.92,-1.53,1.8
3.627,-0.16,-0.83,-1.55,1.77
3.637,-0.03,-0.77,-1.42,1.61
3.647,-0.04,-0.82,-1.1,1.38
3.657,-0.13,-0.94,-0.65,1.15
3.667,-0.24,-1.02,-0.13,1.05
3.677,-0.33,-1.0,0.47,1.15
3.687,-0.41,-0.93,1.03,1.45
3.697,-0.53,-0.9,1.58,1.89
3.707,-0.61,-0.94,2.01,2.3
3.717,-0.7,-1.04,2.18,2.51
3.727,-0.68,-1.15,2.06,2.45
3.738,-0.59,-1.21,1.69,2.16
3.747,-0.47,-1.19,1.16,1.73
3.758,-0.31,-1.15,0.55,1.31
3.768,-0.18,-1.11,-0.02,1.12
3.778,-0.09,-1.07,-0.48,1.17
3.788,0.04,-0.94,-0.85,1.27
3.798,0.2,-0.72,-1.1,1.33
3.808,0.29,-0.49,-1.17,1.3
3.818,0.3,-0.31,-1.11,1.19
3.828,0.28,-0.22,-1.0,1.06
3.838,0.25,-0.15,-0.93,0.97
3.848,0.25,-0.01,-0.87,0.9
3.858,0.21,0.16,-0.82,0.87
3.868,0.14,0.29,-0.71,0.78
3.879,0.1,0.38,-0.61,0.72
3.888,0.14,0.43,-0.56,0.72
3.899,0.14,0.44,-0.47,0.66
3.909,0.13,0.43,-0.32,0.55
3.919,0.13,0.41,-0.17,0.46
3.929,0.16,0.42,-0.01,0.45
3.939,0.18,0.45,0.12,0.5
3.949,0.2,0.5,0.2,0.58
3.959,0.25,0.6,0.2,0.68
3.969,0.27,0.7,0.14,0.76
3.979,0.28,0.78,0.01,0.83
3.989,0.27,0.81,-0.2,0.88
3.999,0.32,0.84,-0.46,1.01
4.009,0.36,0.92,-0.68,1.2
4.019,0.41,1.01,-0.85,1.38
4.03,0.51,1.07,-0.94,1.51
4.039,0.57,1.14,-0.9,1.56
4.05,0.58,1.2,-0.75,1.53
4.06,0.54,1.18,-0.57,1.42
4.07,0.54,1.14,-0.34,1.31
4.08,0.51,1.12,-0.08,1.23
4.09,0.48,1.08,0.14,1.19
4.1,0.5,1.0,0.24,1.14
4.11,0.51,0.9,0.33,1.08
4.12,0.56,0.83,0.41,1.08
4.13,0.57,0.8,0.42,1.07
4.14,0.6,0.72,0.4,1.02
4.151,0.69,0.64,0.38,1.02
4.161,0.83,0.67,0.39,1.14
4.171,0.93,0.72,0.44,1.25
4.181,0.98,0.69,0.47,1.29
4.191,0.99,0.66,0.56,1.31
4.201,0.89,0.6,0.71,1.29
4.211,0.7,0.43,0.88,1.2
4.221,0.59,0.28,1.03,1.22
4.231,0.55,0.17,1.15,1.28
4.241,0.48,0.14,1.3,1.39
4.251,0.32,0.04,1.47,1.5
4.261,0.31,-0.11,1.49,1.52
4.271,0.35,-0.25,1.29,1.36
4.281,0.23,-0.46,1.02,1.14
4.292,0.18,-0.7,0.71,1.01
4.301,0.15,-0.79,0.38,0.89
4.312,0.19,-0.71,0.12,0.74
4.322,0.28,-0.55,-0.04,0.62
4.332,0.36,-0.38,-0.12,0.53
4.342,0.45,-0.25,-0.13,0.53
4.352,0.5,-0.24,-0.04,0.56
4.362,0.5,-0.33,0.09,0.61
4.372,0.48,-0.5,0.28,0.75
4.382,0.48,-0.74,0.45,0.99
4.392,0.46,-1.0,0.6,1.25
4.402,0.33,-1.3,0.84,1.59
4.412,0.21,-1.55,1.02,1.87
4.422,0.28,-1.64,0.98,1.93
4.432,0.41,-1.53,0.79,1.77
4.443,0.49,-1.32,0.63,1.54
4.453,0.52,-1.12,0.48,1.33
4.463,0.63,-0.98,0.31,1.21
4.473,0.79,-0.84,0.17,1.17
4.483,0.9,-0.75,0.12,1.18
4.493,0.93,-0.74,0.16,1.2
4.503,0.95,-0.81,0.25,1.27
4.513,0.93,-0.85,0.37,1.32
4.523,0.88,-0.92,0.39,1.33
4.533,0.91,-1.0,0.31,1.38
4.543,0.91,-1.03,0.22,1.39
4.553,0.78,-1.11,0.13,1.36
4.563,0.72,-1.17,-0.01,1.37
4.574,0.7,-1.11,-0.16,1.33
4.584,0.68,-0.95,-0.26,1.2
4.594,0.7,-0.79,-0.32,1.1
4.604,0.72,-0.67,-0.31,1.03
4.614,0.73,-0.54,-0.24,0.94
4.624,0.73,-0.44,-0.15,0.86
4.634,0.7,-0.36,-0.04,0.78
4.644,0.73,-0.27,0.05,0.78
4.654,0.76,-0.24,0.12,0.8
4.664,0.81,-0.23,0.15,0.86
4.674,0.87,-0.21,0.12,0.91
4.684,0.91,-0.24,0.09,0.94
4.695,0.94,-0.33,0.05,0.99
4.704,0.97,-0.4,0.02,1.05
4.714,0.99,-0.43,0.04,1.08
4.725,1.04,-0.42,0.07,1.12
4.735,1.11,-0.42,0.12,1.2
4.745,1.18,-0.42,0.2,1.27
4.755,1.22,-0.46,0.32,1.34
4.765,1.18,-0.58,0.45,1.39
4.775,1.12,-0.74,0.73,1.53
4.785,1.04,-0.95,1.06,1.76
4.795,0.92,-1.23,1.31,2.02
4.805,0.79,-1.4,1.47,2.18
4.815,0.74,-1.44,1.52,2.22
4.825,0.7,-1.43,1.5,2.19
4.835,0.61,-1.43,1.45,2.13
4.846,0.52,-1.4,1.39,2.04
4.855,0.47,-1.33,1.34,1.95
4.866,0.41,-1.28,1.25,1.84
4.876,0.38,-1.24,1.15,1.74
4.886,0.32,-1.21,1.11,1.67
4.896,0.25,-1.17,1.05,1.59
4.906,0.21,-1.17,0.99,1.55
4.916,0.18,-1.15,0.94,1.49
4.926,0.11,-1.12,0.9,1.44
4.936,0.08,-1.14,0.83,1.41
4.946,0.1,-1.19,0.76,1.41
4.956,0.14,-1.22,0.69,1.41
4.966,0.2,-1.23,0.62,1.39
4.976,0.29,-1.25,0.52,1.38
4.986,0.37,-1.31,0.43,1.43
4.997,0.45,-1.48,0.32,1.58
5.007,0.54,-1.64,0.25,1.74
5.017,0.63,-1.75,0.19,1.87
5.027,0.69,-1.78,0.18,1.91
5.037,0.75,-1.79,0.29,1.96
5.047,0.73,-1.74,0.57,1.97
5.057,0.58,-1.7,1.01,2.07
5.067,0.43,-1.66,1.48,2.27
5.077,0.3,-1.54,1.79,2.38
5.087,0.21,-1.37,1.88,2.34
5.097,0.16,-1.22,1.88,2.25
5.107,0.07,-1.16,1.82,2.16
5.118,-0.02,-1.16,1.74,2.1
5.128,-0.11,-1.21,1.63,2.04
5.138,-0.18,-1.2,1.49,1.92
5.148,-0.24,-1.12,1.24,1.69
5.158,-0.24,-1.03,0.93,1.41
5.168,-0.22,-0.9,0.61,1.11
5.178,-0.2,-0.8,0.26,0.87
5.188,-0.16,-0.78,-0.07,0.8
5.198,-0.11,-0.81,-0.37,0.9
5.208,-0.08,-0.88,-0.56,1.05
5.218,-0.12,-0.99,-0.67,1.2
5.228,-0.12,-1.07,-0.7,1.29
5.238,-0.07,-1.09,-0.71,1.3
5.249,-0.04,-1.13,-0.66,1.31
5.259,0.01,-1.15,-0.61,1.3
5.269,0.02,-1.17,-0.48,1.26
5.279,0.03,-1.16,-0.35,1.22
5.289,0.13,-1.03,-0.27,1.07
5.299,0.22,-0.85,-0.19,0.9
5.309,0.3,-0.62,-0.13,0.7
5.319,0.34,-0.35,-0.04,0.49
5.329,0.27,-0.09,0.14,0.32
5.339,0.13,0.12,0.35,0.39
5.349,-0.0,0.2,0.54,0.58
5.359,-0.12,0.22,0.73,0.77
5.369,-0.29,0.17,0.93,0.99
5.38,-0.42,0.1,1.07,1.15
5.389,-0.44,0.05,1.07,1.15
5.4,-0.41,-0.0,0.91,1.0
5.41,-0.27,-0.01,0.62,0.68
5.42,-0.19,-0.02,0.41,0.46
5.43,-0.03,0.02,0.19,0.2
5.44,0.2,0.17,-0.04,0.27
5.45,0.4,0.29,-0.25,0.55
5.46,0.51,0.27,-0.36,0.68
5.47,0.53,0.25,-0.38,0.69
5.48,0.51,0.24,-0.34,0.66
5.49,0.48,0.34,-0.23,0.63
5.5,0.49,0.51,-0.1,0.71
5.51,0.54,0.71,0.02,0.9
5.52,0.6,0.84,0.23,1.06
5.53,0.63,0.88,0.38,1.15
5.541,0.7,0.87,0.32,1.17
5.551,0.73,0.78,0.15,1.08
5.561,0.57,0.6,0.05,0.83
5.571,0.52,0.43,-0.07,0.68
5.581,0.64,0.37,-0.2,0.76
5.591,0.69,0.38,-0.13,0.79
5.601,0.58,0.32,0.02,0.66
5.611,0.5,0.21,0.2,0.58
5.621,0.41,0.12,0.36,0.56
5.631,0.41,0.09,0.4,0.58
5.641,0.44,0.14,0.31,0.56
5.651,0.41,0.17,0.14,0.47
5.662,0.39,0.17,-0.15,0.45
5.672,0.44,0.21,-0.49,0.69
5.682,0.44,0.26,-0.79,0.94
5.692,0.35,0.31,-0.84,0.96
5.702,0.26,0.4,-0.76,0.9
5.712,0.28,0.51,-0.66,0.88
5.722,0.27,0.58,-0.51,0.82
5.732,0.19,0.61,-0.27,0.69
5.742,0.1,0.65,-0.07,0.66
5.752,-0.08,0.65,0.13,0.66
5.762,-0.28,0.63,0.32,0.76
5.772,-0.45,0.64,0.48,0.92
5.782,-0.53,0.7,0.54,1.03
5.792,-0.57,0.78,0.49,1.08
5.803,-0.63,0.75,0.35,1.04
5.813,-0.67,0.69,0.09,0.97
5.823,-0.66,0.7,-0.24,0.99
5.833,-0.63,0.76,-0.57,1.14
5.843,-0.56,0.86,-0.83,1.31
5.853,-0.51,0.89,-0.96,1.4
5.863,-0.52,0.81,-0.99,1.38
5.873,-0.53,0.7,-0.93,1.28
5.883,-0.48,0.65,-0.77,1.12
5.893,-0.41,0.66,-0.6,0.98
5.903,-0.31,0.65,-0.48,0.86
5.913,-0.17,0.6,-0.39,0.74
5.923,-0.11,0.53,-0.26,0.6
5.934,-0.07,0.47,-0.13,0.49
5.944,0.02,0.42,-0.08,0.42
5.954,0.16,0.37,-0.1,0.41
5.964,0.26,0.33,-0.15,0.45
5.974,0.29,0.3,-0.22,0.47
5.984,0.33,0.32,-0.27,0.53
5.994,0.38,0.33,-0.3,0.58
6.004,0.38,0.37,-0.29,0.61
6.014,0.4,0.39,-0.25,0.62
6.024,0.43,0.42,-0.21,0.63
6.034,0.48,0.42,-0.18,0.67
6.044,0.5,0.4,-0.16,0.66
6.054,0.52,0.36,-0.16,0.65
6.064,0.51,0.33,-0.14,0.63
6.074,0.51,0.34,-0.11,0.62
6.085,0.53,0.37,-0.05,0.65
6.095,0.56,0.41,0.02,0.69
6.105,0.51,0.48,0.1,0.71
6.115,0.51,0.59,0.2,0.8
6.125,0.5,0.71,0.33,0.93
6.135,0.44,0.83,0.5,1.06
6.145,0.38,0.79,0.58,1.05
6.155,0.34,0.52,0.51,0.8
6.165,0.26,0.2,0.38,0.51
6.175,0.18,-0.05,0.23,0.29
6.185,0.13,-0.21,0.05,0.26
6.196,0.13,-0.32,-0.19,0.39
6.205,0.16,-0.35,-0.4,0.55
6.216,0.22,-0.29,-0.5,0.63
6.226,0.23,-0.21,-0.63,0.7
6.236,0.25,-0.16,-0.68,0.74
6.246,0.18,-0.15,-0.68,0.72
6.256,0.07,-0.17,-0.57,0.6
6.266,0.01,-0.17,-0.35,0.39
6.276,-0.06,-0.18,-0.12,0.23
6.286,-0.13,-0.23,0.13,0.29
6.296,-0.2,-0.32,0.34,0.51
6.306,-0.25,-0.41,0.47,0.67
6.317,-0.31,-0.48,0.54,0.79
6.326,-0.4,-0.54,0.58,0.88
6.336,-0.41,-0.55,0.55,0.88
6.346,-0.39,-0.45,0.47,0.76
6.357,-0.36,-0.39,0.38,0.65
6.367,-0.3,-0.42,0.28,0.59
6.377,-0.25,-0.46,0.18,0.55
6.387,-0.21,-0.47,0.16,0.53
6.397,-0.22,-0.43,0.16,0.51
6.407,-0.23,-0.4,0.23,0.51
6.417,-0.25,-0.33,0.31,0.52
6.427,-0.27,-0.24,0.33,0.49
6.437,-0.2,-0.12,0.26,0.35
6.447,-0.16,-0.09,0.17,0.25
6.457,-0.25,-0.19,0.12,0.34
6.467,-0.33,-0.27,0.04,0.42
6.478,-0.33,-0.26,-0.13,0.44
6.487,-0.32,-0.17,-0.31,0.48
6.498,-0.28,-0.12,-0.49,0.57
6.508,-0.21,-0.12,-0.66,0.7
6.518,-0.14,-0.13,-0.73,0.76
6.528,-0.11,-0.14,-0.71,0.73
6.538,-0.1,-0.11,-0.58,0.6
6.548,-0.08,-0.1,-0.43,0.45
6.558,-0.05,-0.07,-0.28,0.29
6.568,-0.05,0.02,-0.15,0.16
6.578,-0.05,0.12,-0.06,0.14
6.588,-0.08,0.23,-0.02,0.24
6.598,-0.06,0.36,-0.05,0.36
6.608,-0.06,0.44,-0.14,0.46
6.619,-0.04,0.48,-0.32,0.58
6.628,-0.03,0.5,-0.55,0.75
6.639,-0.05,0.5,-0.79,0.93
6.649,-0.07,0.51,-0.95,1.09
6.659,-0.09,0.55,-1.0,1.15
6.669,-0.1,0.59,-1.0,1.17
6.679,-0.08,0.64,-0.96,1.15
6.689,-0.14,0.65,-0.89,1.12
6.699,-0.21,0.63,-0.89,1.11
6.709,-0.25,0.62,-0.93,1.15
6.719,-0.32,0.67,-0.98,1.23
6.729,-0.41,0.73,-1.04,1.33
6.739,-0.43,0.79,-1.11,1.43
6.749,-0.5,0.84,-1.12,1.49
6.76,-0.66,0.86,-1.03,1.49
6.77,-0.75,0.87,-0.91,1.47
6.78,-0.89,1.05,-0.77,1.58
6.79,-1.09,1.36,-0.65,1.86
6.8,-1.18,1.67,-0.53,2.11
6.81,-1.1,1.86,-0.38,2.19
6.82,-0.97,1.97,-0.2,2.21
6.83,-0.85,1.92,0.0,2.11
6.84,-0.88,1.6,0.24,1.84
6.85,-0.96,1.21,0.49,1.62
6.86,-0.97,0.89,0.62,1.46
6.87,-0.91,0.69,0.7,1.34
6.88,-0.8,0.6,0.72,1.23
6.89,-0.72,0.61,0.65,1.14
6.901,-0.52,0.7,0.54,1.02
6.91,-0.31,0.83,0.35,0.95
6.921,-0.12,1.04,0.18,1.06
6.931,0.07,1.2,0.05,1.2
6.941,0.15,1.24,0.01,1.25
6.951,0.16,1.19,0.09,1.21
6.961,0.16,1.17,0.23,1.2
6.971,0.2,1.15,0.37,1.22
6.981,0.21,1.0,0.45,1.12
6.991,0.21,0.76,0.53,0.95
7.001,0.16,0.42,0.63,0.77
7.012,0.05,0.15,0.71,0.72
7.021,-0.03,-0.07,0.74,0.74
7.032,0.01,-0.18,0.66,0.69
7.042,0.05,-0.21,0.6,0.64
7.052,0.05,-0.26,0.63,0.69
7.062,0.03,-0.34,0.65,0.73
7.072,0.06,-0.41,0.62,0.75
7.082,0.15,-0.42,0.6,0.75
7.092,0.21,-0.45,0.64,0.81
7.102,0.25,-0.53,0.61,0.85
7.112,0.24,-0.68,0.54,0.9
7.122,0.23,-0.85,0.45,0.98
7.132,0.25,-0.98,0.36,1.07
7.142,0.29,-1.02,0.42,1.14
7.152,0.37,-0.96,0.54,1.17
7.163,0.49,-0.85,0.61,1.15
7.172,0.55,-0.79,0.57,1.12
7.183,0.66,-0.8,0.47,1.14
7.193,0.74,-0.85,0.32,1.17
7.203,0.85,-0.83,0.11,1.2
7.213,0.88,-0.88,-0.05,1.24
7.223,0.92,-0.88,-0.12,1.27
7.233,0.93,-0.8,-0.1,1.24
7.243,0.96,-0.68,0.0,1.17
7.253,0.94,-0.57,0.16,1.11
7.263,0.82,-0.53,0.36,1.04
7.273,0.74,-0.49,0.57,1.05
7.283,0.66,-0.45,0.7,1.06
7.293,0.58,-0.41,0.72,1.01
7.303,0.47,-0.43,0.73,0.97
7.313,0.39,-0.55,0.65,0.94
7.324,0.42,-0.67,0.42,0.9
7.334,0.39,-0.8,0.18,0.91
7.344,0.41,-0.9,-0.16,1.0
7.354,0.49,-0.92,-0.55,1.18
7.364,0.56,-0.88,-0.89,1.38
7.374,0.57,-0.84,-1.12,1.51
7.384,0.54,-0.82,-1.26,1.6
7.394,0.56,-0.79,-1.39,1.69
7.404,0.57,-0.73,-1.45,1.72
7.414,0.53,-0.63,-1.41,1.63
7.424,0.48,-0.52,-1.32,1.49
7.434,0.44,-0.43,-1.24,1.38
7.444,0.36,-0.39,-1.16,1.28
7.455,0.22,-0.33,-0.97,1.05
7.464,0.11,-0.16,-0.78,0.81
7.475,0.08,0.1,-0.67,0.68
7.485,0.03,0.37,-0.56,0.67
7.495,0.07,0.58,-0.52,0.79
7.505,0.17,0.78,-0.56,0.98
7.515,0.16,0.86,-0.59,1.05
7.525,0.11,0.84,-0.57,1.02
7.535,0.02,0.84,-0.52,0.99
7.545,-0.07,0.92,-0.47,1.04
7.555,-0.09,0.97,-0.49,1.09
7.565,-0.06,0.97,-0.55,1.12
7.575,-0.04,0.97,-0.54,1.11
7.586,-0.03,0.94,-0.48,1.05
7.596,-0.03,0.86,-0.4,0.95
7.606,0.04,0.89,-0.42,0.99
7.616,0.11,0.89,-0.39,0.98
7.626,0.13,0.82,-0.34,0.89
7.636,0.15,0.82,-0.31,0.88
7.646,0.2,0.89,-0.23,0.94
7.656,0.17,0.95,-0.08,0.97
7.666,0.04,0.89,0.07,0.89
7.676,0.05,0.76,0.22,0.79
7.686,-0.0,0.74,0.37,0.83
7.696,-0.04,0.84,0.46,0.96
7.706,0.05,1.0,0.47,1.1
7.717,0.16,1.21,0.33,1.27
7.727,0.23,1.3,0.19,1.33
7.737,0.24,1.27,0.09,1.3
7.747,0.32,1.32,-0.03,1.36
7.757,0.3,1.38,-0.04,1.41
7.767,0.29,1.42,0.03,1.45
7.777,0.26,1.39,0.13,1.42
7.787,0.18,1.23,0.29,1.28
7.797,0.04,1.0,0.54,1.14
7.807,-0.23,0.74,0.81,1.11
7.817,-0.33,0.49,0.82,1.01
7.827,-0.23,0.36,0.62,0.75
7.837,-0.13,0.26,0.39,0.49
7.847,-0.06,0.16,0.23,0.28
7.857,-0.06,-0.03,0.04,0.08
7.868,0.03,-0.18,-0.19,0.27
7.878,0.15,-0.29,-0.41,0.53
7.888,0.19,-0.47,-0.55,0.75
7.898,0.29,-0.62,-0.57,0.89
7.908,0.41,-0.75,-0.37,0.93
7.918,0.36,-0.99,-0.22,1.08
7.928,0.26,-1.16,-0.1,1.19
7.938,0.22,-1.19,-0.01,1.21
7.948,0.16,-1.17,0.05,1.18
7.958,0.05,-1.17,0.08,1.17
7.968,0.02,-1.09,0.04,1.09
7.979,0.1,-0.89,-0.02,0.89
7.988,0.19,-0.65,-0.03,0.68
7.999,0.17,-0.53,0.06,0.56
8.009,0.11,-0.48,0.16,0.52
8.019,0.02,-0.41,0.25,0.48
8.029,-0.08,-0.3,0.35,0.47
8.039,-0.11,-0.19,0.44,0.49
8.049,-0.21,-0.22,0.49,0.58
8.059,-0.38,-0.35,0.58,0.78
8.069,-0.44,-0.49,0.55,0.85
8.079,-0.41,-0.59,0.43,0.84
8.089,-0.44,-0.69,0.31,0.88
8.099,-0.48,-0.81,0.2,0.96
8.109,-0.49,-0.85,0.05,0.98
8.119,-0.44,-0.82,-0.07,0.94
8.13,-0.4,-0.78,-0.18,0.89
8.14,-0.38,-0.71,-0.25,0.85
8.15,-0.36,-0.63,-0.3,0.78
8.16,-0.35,-0.51,-0.33,0.71
8.17,-0.28,-0.35,-0.38,0.59
8.18,-0.23,-0.17,-0.4,0.5
8.19,-0.22,0.01,-0.38,0.44
8.2,-0.23,0.16,-0.33,0.43
8.21,-0.21,0.23,-0.36,0.48
8.22,-0.18,0.23,-0.43,0.52
8.23,-0.19,0.24,-0.5,0.58
8.24,-0.19,0.24,-0.55,0.63
8.251,-0.17,0.23,-0.6,0.67
8.261,-0.14,0.24,-0.64,0.7
8.27,-0.08,0.3,-0.7,0.76
8.28,-0.01,0.39,-0.69,0.79
8.291,-0.0,0.43,-0.61,0.74
8.301,-0.03,0.43,-0.53,0.68
8.311,-0.04,0.5,-0.44,0.67
8.321,-0.05,0.69,-0.39,0.79
8.331,-0.07,0.92,-0.34,0.98
8.341,-0.07,1.11,-0.3,1.15
8.351,-0.09,1.26,-0.27,1.29
8.361,-0.1,1.34,-0.27,1.37
8.371,-0.09,1.37,-0.32,1.41
8.381,-0.05,1.39,-0.38,1.44
8.391,-0.0,1.43,-0.42,1.49
8.402,-0.02,1.46,-0.41,1.51
8.411,-0.01,1.47,-0.35,1.51
8.422,-0.0,1.53,-0.3,1.56
8.432,0.02,1.57,-0.22,1.59
8.442,0.05,1.57,-0.07,1.58
8.452,-0.07,1.46,0.14,1.47
8.462,-0.14,1.33,0.36,1.38
8.472,-0.11,1.22,0.57,1.35
8.482,-0.01,1.12,0.7,1.32
8.492,0.17,1.05,0.62,1.23
8.502,0.29,0.96,0.48,1.11
8.512,0.29,0.86,0.51,1.04
8.522,0.27,0.74,0.86,1.16
8.532,0.2,0.68,1.36,1.54
8.542,0.17,0.65,1.87,1.99
8.553,0.0,0.42,2.39,2.43
8.563,-0.11,0.13,2.72,2.73
8.573,-0.06,-0.08,2.85,2.85
8.583,-0.2,-0.23,2.89,2.9
8.593,-0.39,-0.38,2.76,2.81
8.603,-0.51,-0.62,2.44,2.57
8.613,-0.52,-0.84,1.92,2.16
8.623,-0.47,-0.93,1.23,1.61
8.633,-0.36,-0.92,0.52,1.12
8.643,-0.36,-0.91,-0.07,0.98
8.653,-0.3,-0.96,-0.58,1.16
8.663,-0.2,-0.9,-0.95,1.32
8.674,-0.14,-0.77,-1.07,1.32
8.684,-0.25,-0.89,-1.0,1.36
8.694,-0.35,-1.21,-0.9,1.55
8.704,-0.32,-1.43,-0.8,1.67
8.714,-0.35,-1.45,-0.6,1.61
8.724,-0.47,-1.43,-0.42,1.56
8.734,-0.45,-1.37,-0.39,1.49
8.744,-0.29,-1.26,-0.48,1.38
8.754,-0.08,-1.09,-0.67,1.28
8.764,0.09,-0.89,-0.91,1.28
8.774,0.15,-0.76,-1.07,1.32
8.784,0.17,-0.71,-1.15,1.37
8.794,0.12,-0.75,-1.13,1.36
8.805,0.02,-0.78,-0.94,1.22
8.814,-0.08,-0.77,-0.56,0.96
8.825,-0.22,-0.69,-0.06,0.73
8.834,-0.34,-0.62,0.38,0.8
8.845,-0.53,-0.65,0.7,1.1
8.855,-0.74,-0.79,0.95,1.44
8.865,-0.81,-0.93,0.96,1.56
8.875,-0.76,-0.98,0.81,1.48
8.885,-0.7,-0.9,0.49,1.24
8.895,-0.62,-0.72,0.09,0.96
8.905,-0.52,-0.58,-0.36,0.86
8.915,-0.39,-0.52,-0.8,1.03
8.925,-0.3,-0.52,-1.09,1.25
8.935,-0.22,-0.48,-1.21,1.32
8.946,-0.2,-0.36,-1.14,1.22
8.956,-0.14,-0.2,-0.97,1.0
8.966,-0.09,-0.06,-0.73,0.74
8.976,-0.13,-0.02,-0.52,0.54
8.986,-0.17,-0.03,-0.33,0.37
8.996,-0.19,-0.08,-0.28,0.35
9.006,-0.17,-0.07,-0.33,0.38
9.016,-0.15,0.04,-0.39,0.42
9.026,-0.03,0.25,-0.43,0.5
9.036,0.06,0.4,-0.54,0.68
9.046,0.04,0.49,-0.59,0.76
9.057,0.04,0.57,-0.52,0.77
9.066,0.1,0.66,-0.37,0.76
9.077,0.06,0.71,-0.15,0.73
9.087,-0.02,0.67,0.06,0.68
9.096,-0.09,0.72,0.19,0.75
9.107,-0.05,0.88,0.21,0.91
9.117,0.01,1.01,0.08,1.02
9.127,0.08,1.12,-0.12,1.13
9.137,0.13,1.2,-0.37,1.26
9.147,0.13,1.24,-0.6,1.39
9.157,0.15,1.31,-0.78,1.53
9.167,0.2,1.37,-0.91,1.66
9.177,0.27,1.35,-1.0,1.7
9.187,0.37,1.28,-1.04,1.69
9.197,0.42,1.19,-0.97,1.6
9.207,0.44,1.08,-0.75,1.39
9.218,0.4,0.96,-0.45,1.13
9.228,0.35,0.84,-0.18,0.93
9.238,0.35,0.78,0.04,0.86
9.248,0.35,0.79,0.22,0.89
9.258,0.35,0.85,0.4,1.01
9.268,0.35,0.91,0.48,1.09
9.278,0.47,0.92,0.39,1.1
9.288,0.56,0.86,0.29,1.07
9.298,0.48,0.72,0.27,0.91
9.308,0.41,0.66,0.32,0.84
9.318,0.39,0.68,0.4,0.88
9.328,0.36,0.64,0.55,0.92
9.338,0.23,0.41,0.74,0.88
9.348,0.05,0.1,0.97,0.97
9.359,-0.08,-0.13,1.08,1.09
9.368,-0.23,-0.26,1.07,1.12
9.379,-0.42,-0.36,0.92,1.08
9.389,-0.48,-0.43,0.66,0.93
9.399,-0.47,-0.52,0.33,0.77
9.409,-0.4,-0.6,-0.01,0.72
9.419,-0.33,-0.64,-0.25,0.76
9.429,-0.29,-0.64,-0.36,0.79
9.439,-0.19,-0.65,-0.38,0.78
9.449,-0.09,-0.7,-0.35,0.78
9.459,-0.05,-0.81,-0.26,0.85
9.469,-0.02,-0.92,-0.15,0.93
9.479,-0.0,-1.01,0.01,1.01
9.489,-0.05,-1.04,0.13,1.05
9.5,-0.04,-0.96,0.15,0.97
9.51,-0.06,-0.83,0.13,0.84
9.519,-0.16,-0.78,0.14,0.8
9.53,-0.14,-0.64,0.11,0.66
9.54,-0.08,-0.47,0.01,0.48
9.55,-0.03,-0.36,-0.1,0.37
9.56,0.01,-0.29,-0.14,0.32
9.57,0.01,-0.21,-0.04,0.21
9.58,-0.05,-0.13,0.14,0.2
9.59,-0.05,-0.05,0.39,0.39
9.6,-0.06,-0.02,0.57,0.58
9.61,0.03,-0.03,0.62,0.62
9.62,-0.03,-0.18,0.71,0.73
9.631,0.01,-0.37,0.72,0.81
9.64,0.01,-0.53,0.63,0.82
9.651,-0.03,-0.71,0.53,0.89
9.661,-0.03,-0.82,0.37,0.9
9.671,-0.03,-0.82,0.2,0.84
9.681,0.04,-0.68,-0.01,0.68
9.691,0.12,-0.44,-0.16,0.48
9.701,0.02,-0.27,-0.33,0.42
9.711,-0.08,-0.08,-0.49,0.5
9.721,-0.08,0.11,-0.67,0.68
9.731,-0.1,0.18,-0.75,0.78
9.741,-0.13,0.17,-0.76,0.79
9.751,-0.09,0.08,-0.7,0.71
9.761,-0.19,-0.01,-0.51,0.55
9.771,-0.33,-0.06,-0.27,0.43
9.781,-0.34,-0.01,-0.13,0.36
9.792,-0.3,0.1,-0.16,0.36
9.802,-0.2,0.21,-0.35,0.46
9.812,-0.17,0.28,-0.46,0.56
9.822,-0.13,0.33,-0.52,0.63
9.832,-0.14,0.37,-0.62,0.74
9.842,-0.09,0.43,-0.78,0.89
9.852,-0.1,0.53,-0.83,0.99
9.862,-0.14,0.69,-0.74,1.02
9.872,-0.27,0.8,-0.58,1.02
9.882,-0.21,0.85,-0.46,0.99
9.892,-0.18,0.85,-0.39,0.95
9.902,-0.22,0.74,-0.27,0.82
9.913,-0.22,0.6,-0.19,0.66
9.923,-0.21,0.57,-0.2,0.64
9.933,-0.22,0.64,-0.12,0.68
9.943,-0.23,0.81,-0.04,0.85
9.953,-0.18,0.96,-0.07,0.98
9.963,-0.12,0.98,-0.1,0.99
9.973,-0.19,0.89,0.07,0.91
9.983,-0.31,0.84,0.37,0.97
9.993,-0.34,0.82,0.51,1.03
10.003,-0.21,0.87,0.57,1.06
10.013,-0.16,0.85,0.64,1.07
10.023,-0.2,0.76,0.68,1.04
10.033,-0.2,0.66,0.67,0.96
10.044,-0.21,0.51,0.57,0.79
10.053,-0.21,0.31,0.34,0.51
10.063,-0.07,0.14,0.13,0.21
10.073,0.16,0.18,0.03,0.24
10.084,0.46,0.41,0.08,0.62
10.094,0.78,0.77,0.15,1.11
10.104,0.82,1.14,0.25,1.43
10.114,0.5,1.16,0.66,1.43
10.124,-0.05,0.72,1.53,1.69
10.134,-0.38,0.18,2.21,2.25
10.144,-0.43,-0.22,2.47,2.51
10.154,-0.46,-0.55,2.43,2.54
10.164,-0.49,-0.91,2.19,2.42
10.174,-0.24,-1.23,1.88,2.26
10.185,0.44,-1.25,1.81,2.24
10.194,-0.74,-1.56,0.38,1.77
10.205,-0.53,-1.47,0.11,1.56
10.215,-0.07,-1.38,-0.32,1.42
10.225,-0.09,-1.26,-0.83,1.51
10.235,-0.25,-1.08,-1.12,1.57
10.245,-0.22,-0.92,-1.15,1.49
10.255,-0.26,-0.92,-1.03,1.41
10.265,-0.31,-1.05,-0.76,1.33
10.275,-0.24,-1.07,-0.48,1.2
10.285,-0.17,-1.02,-0.22,1.05
10.295,-0.11,-0.92,-0.04,0.93
10.305,-0.03,-0.9,0.03,0.91
10.315,0.17,-0.94,-0.09,0.96
10.325,0.34,-0.91,-0.2,0.99
10.336,0.42,-0.95,-0.2,1.05
10.346,0.4,-1.07,0.01,1.14
10.356,0.27,-1.21,0.37,1.3
10.366,0.07,-1.37,0.77,1.57
10.376,-0.07,-1.46,1.09,1.83
10.386,-0.16,-1.47,1.35,2.0
10.396,-0.32,-1.44,1.41,2.04
10.406,-0.42,-1.4,1.04,1.8
10.416,0.28,-1.03,-1.04,1.49
10.426,1.1,-0.28,-1.43,1.83
10.436,-0.06,-0.38,-0.58,0.69
10.446,-0.52,-0.76,-0.23,0.95
10.456,-0.27,-0.82,-0.18,0.88
10.467,-0.25,-0.89,0.1,0.93
10.477,-0.21,-1.01,0.29,1.07
10.487,-0.18,-1.0,0.31,1.06
10.497,-0.1,-0.79,0.22,0.83
10.507,-0.01,-0.44,0.1,0.45
10.517,0.02,-0.29,0.23,0.37
10.527,0.11,-0.24,0.34,0.43
10.537,0.39,-0.0,-0.02,0.39
10.547,0.76,0.13,-0.56,0.95
10.557,0.62,-0.12,-0.57,0.85
10.567,0.17,-0.32,-0.28,0.46
